SpectraSuite Data File
++++++++++++++++++++++++++++++++++++
Date: Fri Feb 17 17:29:13 PST 2017
User: admin
Dark Spectrum Present: No
Reference Spectrum Present: No
Number of Sampled Component Spectra: 1
Spectrometers: USB2G8485
Integration Time (usec): 100000 (USB2G8485)
Spectra Averaged: 1 (USB2G8485)
Boxcar Smoothing: 1 (USB2G8485)
Correct for Electrical Dark: No (USB2G8485)
Strobe/Lamp Enabled: No (USB2G8485)
Correct for Detector Non-linearity: No (USB2G8485)
Correct for Stray Light: No (USB2G8485)
Number of Pixels in Processed Spectrum: 2048
>>>>>Begin Processed Spectral Data<<<<<
0.00	0.00
1.00	79.67
2.00	120.00
3.00	121.00
4.00	121.33
5.00	121.33
6.00	121.67
7.00	122.00
8.00	123.67
9.00	125.33
10.00	127.33
11.00	128.67
12.00	130.00
13.00	129.67
14.00	129.00
15.00	129.00
16.00	130.67
17.00	131.67
18.00	131.67
19.00	131.00
20.00	130.33
21.00	130.00
22.00	130.33
23.00	132.00
24.00	133.00
25.00	133.33
26.00	134.33
27.00	134.67
28.00	135.33
29.00	134.33
30.00	134.33
31.00	134.67
32.00	135.33
33.00	136.00
34.00	136.67
35.00	137.00
36.00	137.33
37.00	136.67
38.00	136.00
39.00	135.00
40.00	135.00
41.00	135.33
42.00	136.00
43.00	135.33
44.00	135.33
45.00	135.00
46.00	135.00
47.00	135.67
48.00	136.67
49.00	137.33
50.00	136.67
51.00	135.67
52.00	137.33
53.00	138.67
54.00	140.67
55.00	140.00
56.00	139.33
57.00	139.00
58.00	138.33
59.00	139.00
60.00	138.33
61.00	138.67
62.00	138.00
63.00	139.33
64.00	140.00
65.00	140.00
66.00	138.67
67.00	138.33
68.00	139.00
69.00	139.67
70.00	140.00
71.00	140.00
72.00	140.67
73.00	140.33
74.00	139.67
75.00	139.00
76.00	140.33
77.00	141.00
78.00	141.33
79.00	141.00
80.00	141.00
81.00	140.33
82.00	139.00
83.00	140.00
84.00	140.33
85.00	142.67
86.00	142.33
87.00	142.33
88.00	142.00
89.00	142.67
90.00	145.00
91.00	144.67
92.00	143.67
93.00	141.33
94.00	142.67
95.00	144.00
96.00	146.00
97.00	145.00
98.00	143.67
99.00	143.67
100.00	144.00
101.00	146.67
102.00	148.67
103.00	150.33
104.00	149.67
105.00	148.33
106.00	148.00
107.00	149.00
108.00	149.67
109.00	151.00
110.00	151.00
111.00	151.67
112.00	151.00
113.00	150.00
114.00	148.67
115.00	150.67
116.00	152.67
117.00	153.33
118.00	151.00
119.00	149.67
120.00	151.67
121.00	152.67
122.00	154.00
123.00	153.33
124.00	154.33
125.00	158.33
126.00	160.67
127.00	160.33
128.00	158.00
129.00	156.33
130.00	158.67
131.00	160.00
132.00	162.00
133.00	162.00
134.00	163.00
135.00	163.67
136.00	164.00
137.00	164.33
138.00	166.67
139.00	167.00
140.00	167.33
141.00	167.33
142.00	169.67
143.00	171.33
144.00	170.67
145.00	173.67
146.00	175.00
147.00	175.33
148.00	173.67
149.00	174.33
150.00	178.00
151.00	181.00
152.00	183.33
153.00	186.00
154.00	187.00
155.00	187.67
156.00	184.00
157.00	183.33
158.00	184.33
159.00	189.33
160.00	191.67
161.00	193.00
162.00	193.67
163.00	197.00
164.00	202.00
165.00	204.00
166.00	206.00
167.00	206.33
168.00	209.33
169.00	211.67
170.00	213.33
171.00	218.00
172.00	221.33
173.00	225.00
174.00	225.00
175.00	226.33
176.00	228.33
177.00	234.00
178.00	237.33
179.00	240.00
180.00	242.33
181.00	243.67
182.00	247.00
183.00	251.00
184.00	254.00
185.00	258.33
186.00	257.67
187.00	261.33
188.00	264.00
189.00	270.00
190.00	278.00
191.00	281.33
192.00	281.33
193.00	281.33
194.00	283.00
195.00	289.33
196.00	290.33
197.00	295.67
198.00	298.33
199.00	305.00
200.00	309.33
201.00	313.33
202.00	317.00
203.00	320.00
204.00	322.67
205.00	320.00
206.00	325.00
207.00	327.33
208.00	333.67
209.00	336.00
210.00	341.67
211.00	345.33
212.00	347.00
213.00	348.00
214.00	353.33
215.00	359.00
216.00	364.67
217.00	371.33
218.00	374.67
219.00	378.67
220.00	382.00
221.00	388.00
222.00	393.00
223.00	399.33
224.00	402.33
225.00	405.00
226.00	405.00
227.00	412.00
228.00	420.33
229.00	425.00
230.00	427.33
231.00	434.67
232.00	439.33
233.00	442.33
234.00	444.00
235.00	455.00
236.00	462.33
237.00	465.00
238.00	463.00
239.00	468.00
240.00	473.33
241.00	479.67
242.00	481.67
243.00	490.67
244.00	493.33
245.00	501.67
246.00	503.33
247.00	509.33
248.00	509.00
249.00	515.67
250.00	524.00
251.00	529.67
252.00	526.67
253.00	532.00
254.00	537.33
255.00	545.67
256.00	550.33
257.00	558.67
258.00	564.00
259.00	566.33
260.00	569.67
261.00	581.00
262.00	590.00
263.00	599.33
264.00	599.67
265.00	602.67
266.00	605.33
267.00	611.33
268.00	618.33
269.00	622.00
270.00	631.67
271.00	640.67
272.00	649.33
273.00	652.33
274.00	647.67
275.00	650.33
276.00	656.00
277.00	665.00
278.00	665.33
279.00	680.33
280.00	690.33
281.00	701.33
282.00	702.00
283.00	709.33
284.00	718.67
285.00	723.00
286.00	728.67
287.00	738.67
288.00	746.33
289.00	754.67
290.00	762.33
291.00	767.00
292.00	774.67
293.00	774.33
294.00	780.67
295.00	781.33
296.00	787.33
297.00	789.67
298.00	796.00
299.00	810.67
300.00	818.00
301.00	824.67
302.00	827.67
303.00	838.33
304.00	847.67
305.00	852.33
306.00	858.00
307.00	867.33
308.00	882.67
309.00	889.33
310.00	897.33
311.00	902.67
312.00	916.33
313.00	922.00
314.00	930.67
315.00	942.67
316.00	943.67
317.00	945.67
318.00	947.33
319.00	966.00
320.00	972.67
321.00	976.33
322.00	981.67
323.00	986.00
324.00	993.33
325.00	998.00
326.00	1010.67
327.00	1022.33
328.00	1033.00
329.00	1038.00
330.00	1043.00
331.00	1046.67
332.00	1060.33
333.00	1071.67
334.00	1087.33
335.00	1090.67
336.00	1099.00
337.00	1108.00
338.00	1126.00
339.00	1136.33
340.00	1146.00
341.00	1151.33
342.00	1168.67
343.00	1179.67
344.00	1191.67
345.00	1198.00
346.00	1212.67
347.00	1221.33
348.00	1229.67
349.00	1239.67
350.00	1255.33
351.00	1269.67
352.00	1278.00
353.00	1288.67
354.00	1309.00
355.00	1327.33
356.00	1340.00
357.00	1343.00
358.00	1348.33
359.00	1371.67
360.00	1390.33
361.00	1412.00
362.00	1430.00
363.00	1445.67
364.00	1464.67
365.00	1475.33
366.00	1494.00
367.00	1504.33
368.00	1514.33
369.00	1526.67
370.00	1553.00
371.00	1575.00
372.00	1599.67
373.00	1606.67
374.00	1619.33
375.00	1625.33
376.00	1646.00
377.00	1672.00
378.00	1698.00
379.00	1716.67
380.00	1737.33
381.00	1758.00
382.00	1779.67
383.00	1791.67
384.00	1809.00
385.00	1823.33
386.00	1841.00
387.00	1858.67
388.00	1874.33
389.00	1895.00
390.00	1908.00
391.00	1924.00
392.00	1922.67
393.00	1939.00
394.00	1951.33
395.00	1987.67
396.00	1996.00
397.00	2014.33
398.00	2018.00
399.00	2039.67
400.00	2061.33
401.00	2078.33
402.00	2092.33
403.00	2102.67
404.00	2107.33
405.00	2119.33
406.00	2121.67
407.00	2136.67
408.00	2144.67
409.00	2160.00
410.00	2185.67
411.00	2203.00
412.00	2213.00
413.00	2217.00
414.00	2225.00
415.00	2244.67
416.00	2260.33
417.00	2264.67
418.00	2274.67
419.00	2282.00
420.00	2305.00
421.00	2308.67
422.00	2321.33
423.00	2318.00
424.00	2331.33
425.00	2344.33
426.00	2361.67
427.00	2380.67
428.00	2375.33
429.00	2386.00
430.00	2386.00
431.00	2413.67
432.00	2426.00
433.00	2437.00
434.00	2434.00
435.00	2455.00
436.00	2467.67
437.00	2488.33
438.00	2492.33
439.00	2496.33
440.00	2495.33
441.00	2495.00
442.00	2506.67
443.00	2522.00
444.00	2543.00
445.00	2556.00
446.00	2564.33
447.00	2574.67
448.00	2587.00
449.00	2605.33
450.00	2612.00
451.00	2621.00
452.00	2615.00
453.00	2609.33
454.00	2623.33
455.00	2641.67
456.00	2672.00
457.00	2680.00
458.00	2687.67
459.00	2683.00
460.00	2687.67
461.00	2691.33
462.00	2700.67
463.00	2712.67
464.00	2729.33
465.00	2737.33
466.00	2736.67
467.00	2744.00
468.00	2761.33
469.00	2774.67
470.00	2781.67
471.00	2786.00
472.00	2793.33
473.00	2804.33
474.00	2812.00
475.00	2824.00
476.00	2828.33
477.00	2832.67
478.00	2823.67
479.00	2843.00
480.00	2855.00
481.00	2877.00
482.00	2868.67
483.00	2874.67
484.00	2878.67
485.00	2891.67
486.00	2885.67
487.00	2883.67
488.00	2880.00
489.00	2898.67
490.00	2912.00
491.00	2921.00
492.00	2937.67
493.00	2950.67
494.00	2952.00
495.00	2957.67
496.00	2956.00
497.00	2965.67
498.00	2970.67
499.00	2973.00
500.00	2988.67
501.00	2985.33
502.00	2998.67
503.00	2986.67
504.00	2987.00
505.00	2991.00
506.00	3012.67
507.00	3019.67
508.00	3026.00
509.00	3027.00
510.00	3025.00
511.00	3021.00
512.00	3017.67
513.00	3025.67
514.00	3035.67
515.00	3044.67
516.00	3049.33
517.00	3048.00
518.00	3047.33
519.00	3062.67
520.00	3074.00
521.00	3088.00
522.00	3093.33
523.00	3102.67
524.00	3086.00
525.00	3090.67
526.00	3091.67
527.00	3122.33
528.00	3126.67
529.00	3137.00
530.00	3138.00
531.00	3142.33
532.00	3140.00
533.00	3137.00
534.00	3141.33
535.00	3143.67
536.00	3161.33
537.00	3160.33
538.00	3179.67
539.00	3186.67
540.00	3207.00
541.00	3213.67
542.00	3214.33
543.00	3208.67
544.00	3227.67
545.00	3237.00
546.00	3259.00
547.00	3257.33
548.00	3267.00
549.00	3274.00
550.00	3280.67
551.00	3295.67
552.00	3289.33
553.00	3291.00
554.00	3293.00
555.00	3309.33
556.00	3308.00
557.00	3316.67
558.00	3320.67
559.00	3344.00
560.00	3363.00
561.00	3376.67
562.00	3387.67
563.00	3380.33
564.00	3378.67
565.00	3380.00
566.00	3377.67
567.00	3394.00
568.00	3398.67
569.00	3411.33
570.00	3412.00
571.00	3412.00
572.00	3423.33
573.00	3423.33
574.00	3427.67
575.00	3443.67
576.00	3446.00
577.00	3458.33
578.00	3453.67
579.00	3462.67
580.00	3477.00
581.00	3477.67
582.00	3494.67
583.00	3496.33
584.00	3509.67
585.00	3507.67
586.00	3485.33
587.00	3486.00
588.00	3500.33
589.00	3532.00
590.00	3543.67
591.00	3530.33
592.00	3526.67
593.00	3504.33
594.00	3515.33
595.00	3523.67
596.00	3552.67
597.00	3558.00
598.00	3552.67
599.00	3558.67
600.00	3562.00
601.00	3574.00
602.00	3564.00
603.00	3572.00
604.00	3568.67
605.00	3570.33
606.00	3568.00
607.00	3570.33
608.00	3578.33
609.00	3583.67
610.00	3580.67
611.00	3580.67
612.00	3583.67
613.00	3585.33
614.00	3602.67
615.00	3608.67
616.00	3626.33
617.00	3621.33
618.00	3617.67
619.00	3622.00
620.00	3624.33
621.00	3634.67
622.00	3625.67
623.00	3624.00
624.00	3625.00
625.00	3636.67
626.00	3658.67
627.00	3658.00
628.00	3657.67
629.00	3643.33
630.00	3649.33
631.00	3666.33
632.00	3671.33
633.00	3682.00
634.00	3683.00
635.00	3691.00
636.00	3696.33
637.00	3700.33
638.00	3709.33
639.00	3705.33
640.00	3693.67
641.00	3690.67
642.00	3685.00
643.00	3699.33
644.00	3706.00
645.00	3726.33
646.00	3726.67
647.00	3745.67
648.00	3738.67
649.00	3745.33
650.00	3724.33
651.00	3745.67
652.00	3748.00
653.00	3764.00
654.00	3752.33
655.00	3752.00
656.00	3749.67
657.00	3750.00
658.00	3753.67
659.00	3753.33
660.00	3751.00
661.00	3754.67
662.00	3752.33
663.00	3760.00
664.00	3755.00
665.00	3756.33
666.00	3759.00
667.00	3769.33
668.00	3780.00
669.00	3797.33
670.00	3807.00
671.00	3798.00
672.00	3780.33
673.00	3779.33
674.00	3783.00
675.00	3793.00
676.00	3786.67
677.00	3803.33
678.00	3806.00
679.00	3804.33
680.00	3801.00
681.00	3797.33
682.00	3807.00
683.00	3810.00
684.00	3807.67
685.00	3820.33
686.00	3821.67
687.00	3830.00
688.00	3836.67
689.00	3845.00
690.00	3853.67
691.00	3844.00
692.00	3840.33
693.00	3837.33
694.00	3844.33
695.00	3852.67
696.00	3858.33
697.00	3854.67
698.00	3850.67
699.00	3858.00
700.00	3850.00
701.00	3856.00
702.00	3861.33
703.00	3871.33
704.00	3876.33
705.00	3864.67
706.00	3868.67
707.00	3870.00
708.00	3876.00
709.00	3886.00
710.00	3880.00
711.00	3886.67
712.00	3898.67
713.00	3911.67
714.00	3919.67
715.00	3913.00
716.00	3914.67
717.00	3913.67
718.00	3909.67
719.00	3916.00
720.00	3920.00
721.00	3928.67
722.00	3920.67
723.00	3927.33
724.00	3922.00
725.00	3920.33
726.00	3917.00
727.00	3920.00
728.00	3925.33
729.00	3932.67
730.00	3944.33
731.00	3960.67
732.00	3948.67
733.00	3934.67
734.00	3933.67
735.00	3941.33
736.00	3940.67
737.00	3951.67
738.00	3949.00
739.00	3980.33
740.00	3965.00
741.00	3965.67
742.00	3943.67
743.00	3948.67
744.00	3959.67
745.00	3973.33
746.00	3974.67
747.00	3973.33
748.00	3971.67
749.00	3966.67
750.00	3966.00
751.00	3959.00
752.00	3961.00
753.00	3948.67
754.00	3948.33
755.00	3951.00
756.00	3960.33
757.00	3956.33
758.00	3959.33
759.00	3966.00
760.00	3976.67
761.00	3967.33
762.00	3957.33
763.00	3963.67
764.00	3954.67
765.00	3964.33
766.00	3955.00
767.00	3958.33
768.00	3957.33
769.00	3966.67
770.00	3980.00
771.00	3970.00
772.00	3954.67
773.00	3954.00
774.00	3960.67
775.00	3962.67
776.00	3960.00
777.00	3944.67
778.00	3962.33
779.00	3947.00
780.00	3953.33
781.00	3940.67
782.00	3951.67
783.00	3950.67
784.00	3948.00
785.00	3953.00
786.00	3953.00
787.00	3954.33
788.00	3955.00
789.00	3961.00
790.00	3954.33
791.00	3954.00
792.00	3957.00
793.00	3955.67
794.00	3953.00
795.00	3943.00
796.00	3943.33
797.00	3936.33
798.00	3926.00
799.00	3926.33
800.00	3911.33
801.00	3924.00
802.00	3923.67
803.00	3943.67
804.00	3928.67
805.00	3934.33
806.00	3918.67
807.00	3921.33
808.00	3912.00
809.00	3903.00
810.00	3908.33
811.00	3907.00
812.00	3917.33
813.00	3922.00
814.00	3920.33
815.00	3926.00
816.00	3919.00
817.00	3926.33
818.00	3917.67
819.00	3914.33
820.00	3898.67
821.00	3908.67
822.00	3903.00
823.00	3892.33
824.00	3881.00
825.00	3883.33
826.00	3890.33
827.00	3888.67
828.00	3885.33
829.00	3887.67
830.00	3881.33
831.00	3872.67
832.00	3858.00
833.00	3861.00
834.00	3868.33
835.00	3862.00
836.00	3856.00
837.00	3853.33
838.00	3860.00
839.00	3847.00
840.00	3836.33
841.00	3844.67
842.00	3843.67
843.00	3842.67
844.00	3830.33
845.00	3830.33
846.00	3823.00
847.00	3814.33
848.00	3830.33
849.00	3838.67
850.00	3840.00
851.00	3813.67
852.00	3798.67
853.00	3796.33
854.00	3803.33
855.00	3795.67
856.00	3795.67
857.00	3786.33
858.00	3797.33
859.00	3778.67
860.00	3768.67
861.00	3754.00
862.00	3756.00
863.00	3765.67
864.00	3767.00
865.00	3754.33
866.00	3741.33
867.00	3743.67
868.00	3757.33
869.00	3749.67
870.00	3727.00
871.00	3717.33
872.00	3724.00
873.00	3714.00
874.00	3704.00
875.00	3684.67
876.00	3707.67
877.00	3690.67
878.00	3686.00
879.00	3671.00
880.00	3682.00
881.00	3684.00
882.00	3670.67
883.00	3673.33
884.00	3656.00
885.00	3673.33
886.00	3663.33
887.00	3668.33
888.00	3655.00
889.00	3641.67
890.00	3648.67
891.00	3646.00
892.00	3648.33
893.00	3640.67
894.00	3631.00
895.00	3627.33
896.00	3611.00
897.00	3607.67
898.00	3595.33
899.00	3609.33
900.00	3591.33
901.00	3584.67
902.00	3567.00
903.00	3566.00
904.00	3562.33
905.00	3562.67
906.00	3554.33
907.00	3557.33
908.00	3549.33
909.00	3538.33
910.00	3525.00
911.00	3523.67
912.00	3529.00
913.00	3532.00
914.00	3520.00
915.00	3515.67
916.00	3513.67
917.00	3513.67
918.00	3505.67
919.00	3489.00
920.00	3472.67
921.00	3481.00
922.00	3475.00
923.00	3479.00
924.00	3485.00
925.00	3494.00
926.00	3496.00
927.00	3475.33
928.00	3480.67
929.00	3476.33
930.00	3465.33
931.00	3440.67
932.00	3441.67
933.00	3441.67
934.00	3446.67
935.00	3426.33
936.00	3421.00
937.00	3407.67
938.00	3408.00
939.00	3403.00
940.00	3402.00
941.00	3388.33
942.00	3376.67
943.00	3374.00
944.00	3380.67
945.00	3382.67
946.00	3381.00
947.00	3380.00
948.00	3383.33
949.00	3374.67
950.00	3368.33
951.00	3355.33
952.00	3346.67
953.00	3328.67
954.00	3319.00
955.00	3318.00
956.00	3320.33
957.00	3325.67
958.00	3329.33
959.00	3335.00
960.00	3322.67
961.00	3306.00
962.00	3300.33
963.00	3307.00
964.00	3309.67
965.00	3291.00
966.00	3278.33
967.00	3276.00
968.00	3276.33
969.00	3272.33
970.00	3253.67
971.00	3253.00
972.00	3243.00
973.00	3251.33
974.00	3236.00
975.00	3235.33
976.00	3230.33
977.00	3235.33
978.00	3239.67
979.00	3233.67
980.00	3222.00
981.00	3206.33
982.00	3192.00
983.00	3185.00
984.00	3179.67
985.00	3180.00
986.00	3165.33
987.00	3153.00
988.00	3145.33
989.00	3157.67
990.00	3153.00
991.00	3142.67
992.00	3134.00
993.00	3130.00
994.00	3125.33
995.00	3114.33
996.00	3111.00
997.00	3106.33
998.00	3110.00
999.00	3105.33
1000.00	3105.00
1001.00	3083.67
1002.00	3082.67
1003.00	3070.00
1004.00	3072.00
1005.00	3053.00
1006.00	3045.00
1007.00	3034.00
1008.00	3022.33
1009.00	3019.33
1010.00	3006.33
1011.00	3002.33
1012.00	2992.33
1013.00	2988.00
1014.00	2982.67
1015.00	2968.67
1016.00	2968.67
1017.00	2960.33
1018.00	2964.00
1019.00	2948.67
1020.00	2950.67
1021.00	2935.33
1022.00	2932.33
1023.00	2906.67
1024.00	2911.33
1025.00	2907.33
1026.00	2917.00
1027.00	2893.67
1028.00	2881.00
1029.00	2877.67
1030.00	2871.00
1031.00	2865.00
1032.00	2849.33
1033.00	2845.00
1034.00	2834.00
1035.00	2833.67
1036.00	2828.67
1037.00	2825.33
1038.00	2824.00
1039.00	2823.33
1040.00	2818.00
1041.00	2799.33
1042.00	2801.00
1043.00	2792.67
1044.00	2790.33
1045.00	2762.00
1046.00	2746.00
1047.00	2739.67
1048.00	2738.67
1049.00	2734.67
1050.00	2711.67
1051.00	2714.00
1052.00	2713.33
1053.00	2720.00
1054.00	2712.00
1055.00	2692.33
1056.00	2685.00
1057.00	2667.67
1058.00	2672.00
1059.00	2663.33
1060.00	2658.00
1061.00	2648.67
1062.00	2640.67
1063.00	2643.67
1064.00	2631.33
1065.00	2622.33
1066.00	2604.67
1067.00	2606.67
1068.00	2611.67
1069.00	2605.00
1070.00	2602.00
1071.00	2583.33
1072.00	2574.67
1073.00	2557.00
1074.00	2544.67
1075.00	2541.67
1076.00	2532.33
1077.00	2541.00
1078.00	2532.67
1079.00	2530.67
1080.00	2509.67
1081.00	2500.67
1082.00	2483.33
1083.00	2488.00
1084.00	2473.67
1085.00	2473.00
1086.00	2460.67
1087.00	2462.33
1088.00	2465.33
1089.00	2454.00
1090.00	2443.33
1091.00	2454.00
1092.00	2442.67
1093.00	2449.33
1094.00	2428.00
1095.00	2430.67
1096.00	2426.67
1097.00	2424.00
1098.00	2421.67
1099.00	2402.67
1100.00	2377.67
1101.00	2371.00
1102.00	2376.33
1103.00	2385.67
1104.00	2383.33
1105.00	2376.67
1106.00	2362.33
1107.00	2349.00
1108.00	2337.33
1109.00	2349.33
1110.00	2342.33
1111.00	2333.33
1112.00	2309.00
1113.00	2311.33
1114.00	2306.33
1115.00	2305.67
1116.00	2301.33
1117.00	2298.67
1118.00	2292.33
1119.00	2282.33
1120.00	2270.33
1121.00	2269.00
1122.00	2272.33
1123.00	2275.00
1124.00	2261.00
1125.00	2249.67
1126.00	2248.67
1127.00	2246.67
1128.00	2241.00
1129.00	2232.00
1130.00	2221.00
1131.00	2204.67
1132.00	2189.67
1133.00	2188.33
1134.00	2190.33
1135.00	2193.67
1136.00	2186.33
1137.00	2178.67
1138.00	2169.33
1139.00	2169.67
1140.00	2158.33
1141.00	2149.00
1142.00	2144.33
1143.00	2149.00
1144.00	2153.33
1145.00	2161.00
1146.00	2153.67
1147.00	2139.33
1148.00	2122.00
1149.00	2116.67
1150.00	2122.33
1151.00	2114.00
1152.00	2113.33
1153.00	2105.67
1154.00	2109.00
1155.00	2102.67
1156.00	2087.33
1157.00	2076.00
1158.00	2076.67
1159.00	2078.33
1160.00	2076.33
1161.00	2063.33
1162.00	2069.00
1163.00	2069.67
1164.00	2060.33
1165.00	2048.33
1166.00	2031.33
1167.00	2030.67
1168.00	2032.33
1169.00	2022.00
1170.00	2026.00
1171.00	2011.67
1172.00	2021.33
1173.00	2013.67
1174.00	2012.33
1175.00	2003.33
1176.00	1992.00
1177.00	1988.67
1178.00	1984.00
1179.00	1972.33
1180.00	1960.00
1181.00	1952.00
1182.00	1958.00
1183.00	1951.33
1184.00	1949.67
1185.00	1938.67
1186.00	1940.33
1187.00	1938.00
1188.00	1935.00
1189.00	1929.00
1190.00	1929.00
1191.00	1928.33
1192.00	1925.67
1193.00	1911.33
1194.00	1900.67
1195.00	1891.67
1196.00	1892.67
1197.00	1899.00
1198.00	1894.67
1199.00	1884.00
1200.00	1869.33
1201.00	1872.67
1202.00	1869.00
1203.00	1869.00
1204.00	1850.00
1205.00	1847.00
1206.00	1835.33
1207.00	1838.33
1208.00	1827.33
1209.00	1823.33
1210.00	1819.33
1211.00	1820.33
1212.00	1813.67
1213.00	1814.33
1214.00	1807.67
1215.00	1806.00
1216.00	1795.33
1217.00	1784.00
1218.00	1779.00
1219.00	1763.00
1220.00	1766.67
1221.00	1763.33
1222.00	1768.67
1223.00	1750.00
1224.00	1744.67
1225.00	1732.33
1226.00	1734.67
1227.00	1726.67
1228.00	1719.33
1229.00	1715.33
1230.00	1708.33
1231.00	1719.00
1232.00	1716.33
1233.00	1715.67
1234.00	1701.00
1235.00	1700.00
1236.00	1684.67
1237.00	1677.67
1238.00	1666.33
1239.00	1675.00
1240.00	1668.33
1241.00	1661.67
1242.00	1645.00
1243.00	1639.00
1244.00	1632.33
1245.00	1630.00
1246.00	1625.00
1247.00	1621.67
1248.00	1617.00
1249.00	1618.67
1250.00	1605.33
1251.00	1588.67
1252.00	1581.67
1253.00	1580.00
1254.00	1578.67
1255.00	1570.67
1256.00	1569.67
1257.00	1567.00
1258.00	1560.67
1259.00	1554.33
1260.00	1547.33
1261.00	1540.00
1262.00	1529.00
1263.00	1529.33
1264.00	1526.00
1265.00	1524.00
1266.00	1507.33
1267.00	1501.33
1268.00	1489.67
1269.00	1489.00
1270.00	1476.00
1271.00	1474.00
1272.00	1470.67
1273.00	1463.00
1274.00	1463.67
1275.00	1466.00
1276.00	1471.33
1277.00	1469.00
1278.00	1464.33
1279.00	1458.67
1280.00	1452.00
1281.00	1446.00
1282.00	1440.67
1283.00	1430.00
1284.00	1428.67
1285.00	1433.00
1286.00	1441.67
1287.00	1440.00
1288.00	1436.67
1289.00	1432.33
1290.00	1427.33
1291.00	1420.33
1292.00	1416.33
1293.00	1416.00
1294.00	1413.33
1295.00	1416.00
1296.00	1414.67
1297.00	1415.67
1298.00	1405.67
1299.00	1402.33
1300.00	1402.67
1301.00	1406.67
1302.00	1408.00
1303.00	1408.33
1304.00	1401.00
1305.00	1391.67
1306.00	1382.00
1307.00	1377.67
1308.00	1373.67
1309.00	1376.00
1310.00	1375.33
1311.00	1377.67
1312.00	1371.00
1313.00	1375.00
1314.00	1376.00
1315.00	1381.33
1316.00	1370.00
1317.00	1368.00
1318.00	1362.00
1319.00	1368.00
1320.00	1359.00
1321.00	1354.00
1322.00	1349.67
1323.00	1347.00
1324.00	1345.33
1325.00	1342.00
1326.00	1341.33
1327.00	1337.00
1328.00	1336.67
1329.00	1333.67
1330.00	1332.00
1331.00	1324.00
1332.00	1320.33
1333.00	1320.00
1334.00	1317.67
1335.00	1315.00
1336.00	1307.67
1337.00	1303.00
1338.00	1305.33
1339.00	1301.33
1340.00	1298.33
1341.00	1285.33
1342.00	1278.00
1343.00	1282.00
1344.00	1267.00
1345.00	1261.67
1346.00	1250.00
1347.00	1257.33
1348.00	1262.00
1349.00	1253.00
1350.00	1250.67
1351.00	1243.00
1352.00	1241.67
1353.00	1236.33
1354.00	1225.00
1355.00	1224.67
1356.00	1222.67
1357.00	1227.67
1358.00	1224.67
1359.00	1221.33
1360.00	1216.00
1361.00	1209.33
1362.00	1210.33
1363.00	1205.00
1364.00	1203.67
1365.00	1188.33
1366.00	1186.00
1367.00	1176.00
1368.00	1174.67
1369.00	1172.67
1370.00	1170.33
1371.00	1167.33
1372.00	1161.67
1373.00	1155.33
1374.00	1155.67
1375.00	1152.00
1376.00	1153.33
1377.00	1144.00
1378.00	1137.67
1379.00	1130.67
1380.00	1129.67
1381.00	1130.33
1382.00	1127.00
1383.00	1116.00
1384.00	1110.67
1385.00	1104.00
1386.00	1109.33
1387.00	1099.33
1388.00	1108.33
1389.00	1102.33
1390.00	1101.33
1391.00	1092.00
1392.00	1090.33
1393.00	1091.33
1394.00	1078.33
1395.00	1070.00
1396.00	1060.33
1397.00	1063.00
1398.00	1063.00
1399.00	1069.67
1400.00	1067.67
1401.00	1070.67
1402.00	1061.00
1403.00	1055.67
1404.00	1046.67
1405.00	1045.67
1406.00	1047.67
1407.00	1046.33
1408.00	1047.33
1409.00	1040.67
1410.00	1036.67
1411.00	1028.67
1412.00	1025.67
1413.00	1020.33
1414.00	1021.00
1415.00	1018.00
1416.00	1018.67
1417.00	1012.00
1418.00	1010.00
1419.00	1002.67
1420.00	1001.33
1421.00	992.67
1422.00	993.33
1423.00	994.67
1424.00	1001.33
1425.00	996.33
1426.00	985.67
1427.00	978.67
1428.00	979.67
1429.00	984.33
1430.00	983.00
1431.00	978.00
1432.00	973.00
1433.00	973.67
1434.00	974.00
1435.00	960.33
1436.00	959.33
1437.00	952.67
1438.00	961.00
1439.00	956.67
1440.00	959.33
1441.00	957.33
1442.00	950.67
1443.00	947.33
1444.00	945.00
1445.00	941.00
1446.00	932.00
1447.00	934.33
1448.00	938.33
1449.00	942.33
1450.00	933.33
1451.00	927.67
1452.00	919.67
1453.00	917.67
1454.00	912.33
1455.00	913.67
1456.00	912.00
1457.00	913.33
1458.00	920.00
1459.00	919.67
1460.00	917.67
1461.00	907.33
1462.00	902.33
1463.00	896.33
1464.00	894.33
1465.00	892.67
1466.00	892.67
1467.00	890.67
1468.00	884.33
1469.00	886.33
1470.00	885.00
1471.00	879.33
1472.00	871.00
1473.00	864.67
1474.00	873.33
1475.00	871.00
1476.00	878.00
1477.00	869.33
1478.00	863.33
1479.00	852.67
1480.00	852.33
1481.00	853.00
1482.00	857.67
1483.00	860.67
1484.00	862.00
1485.00	851.00
1486.00	848.00
1487.00	845.67
1488.00	846.00
1489.00	841.33
1490.00	841.33
1491.00	841.67
1492.00	835.33
1493.00	834.67
1494.00	828.33
1495.00	829.67
1496.00	826.67
1497.00	823.00
1498.00	818.33
1499.00	813.00
1500.00	815.33
1501.00	812.33
1502.00	808.67
1503.00	809.00
1504.00	804.33
1505.00	804.67
1506.00	796.33
1507.00	795.67
1508.00	796.33
1509.00	797.00
1510.00	795.67
1511.00	785.67
1512.00	780.67
1513.00	781.33
1514.00	783.33
1515.00	780.33
1516.00	774.67
1517.00	764.33
1518.00	763.33
1519.00	759.67
1520.00	760.67
1521.00	753.00
1522.00	749.00
1523.00	746.33
1524.00	743.67
1525.00	739.00
1526.00	737.00
1527.00	735.67
1528.00	734.33
1529.00	730.67
1530.00	729.33
1531.00	731.00
1532.00	727.67
1533.00	728.67
1534.00	723.33
1535.00	724.00
1536.00	718.33
1537.00	716.67
1538.00	712.33
1539.00	713.00
1540.00	712.33
1541.00	710.00
1542.00	710.67
1543.00	704.67
1544.00	699.67
1545.00	692.67
1546.00	690.33
1547.00	693.00
1548.00	697.33
1549.00	698.00
1550.00	696.67
1551.00	695.67
1552.00	694.33
1553.00	696.67
1554.00	684.33
1555.00	682.00
1556.00	677.00
1557.00	684.67
1558.00	688.33
1559.00	691.67
1560.00	689.00
1561.00	686.67
1562.00	685.33
1563.00	684.33
1564.00	688.00
1565.00	686.33
1566.00	688.33
1567.00	683.67
1568.00	686.00
1569.00	684.00
1570.00	682.67
1571.00	674.67
1572.00	675.67
1573.00	680.67
1574.00	687.33
1575.00	686.67
1576.00	685.00
1577.00	677.00
1578.00	676.33
1579.00	675.33
1580.00	681.00
1581.00	683.33
1582.00	685.00
1583.00	680.00
1584.00	673.00
1585.00	670.33
1586.00	673.67
1587.00	674.67
1588.00	674.00
1589.00	675.00
1590.00	675.33
1591.00	670.33
1592.00	673.67
1593.00	679.33
1594.00	691.00
1595.00	685.67
1596.00	680.67
1597.00	672.67
1598.00	673.33
1599.00	673.00
1600.00	672.33
1601.00	668.33
1602.00	663.67
1603.00	657.00
1604.00	657.33
1605.00	656.00
1606.00	655.67
1607.00	651.67
1608.00	652.33
1609.00	652.00
1610.00	647.33
1611.00	650.33
1612.00	649.33
1613.00	649.00
1614.00	641.33
1615.00	636.33
1616.00	637.67
1617.00	635.33
1618.00	639.67
1619.00	640.33
1620.00	640.33
1621.00	635.33
1622.00	635.00
1623.00	630.33
1624.00	633.67
1625.00	631.00
1626.00	633.67
1627.00	626.67
1628.00	620.00
1629.00	613.67
1630.00	613.33
1631.00	615.33
1632.00	619.33
1633.00	620.67
1634.00	612.33
1635.00	606.67
1636.00	599.33
1637.00	600.33
1638.00	598.33
1639.00	597.00
1640.00	596.00
1641.00	594.67
1642.00	592.67
1643.00	586.00
1644.00	580.67
1645.00	578.67
1646.00	584.67
1647.00	584.67
1648.00	582.67
1649.00	576.00
1650.00	575.00
1651.00	573.00
1652.00	573.33
1653.00	572.33
1654.00	570.33
1655.00	568.00
1656.00	560.33
1657.00	560.33
1658.00	554.67
1659.00	553.00
1660.00	548.67
1661.00	547.33
1662.00	546.67
1663.00	541.33
1664.00	540.67
1665.00	533.67
1666.00	532.67
1667.00	528.33
1668.00	533.33
1669.00	534.33
1670.00	530.33
1671.00	527.67
1672.00	521.33
1673.00	522.00
1674.00	522.00
1675.00	524.67
1676.00	518.67
1677.00	516.00
1678.00	511.33
1679.00	512.00
1680.00	508.33
1681.00	505.00
1682.00	501.67
1683.00	495.00
1684.00	493.00
1685.00	489.33
1686.00	487.00
1687.00	487.67
1688.00	489.00
1689.00	492.33
1690.00	485.67
1691.00	478.67
1692.00	477.33
1693.00	476.00
1694.00	477.67
1695.00	470.00
1696.00	466.67
1697.00	464.67
1698.00	466.67
1699.00	466.00
1700.00	463.33
1701.00	459.33
1702.00	458.00
1703.00	457.33
1704.00	454.67
1705.00	451.33
1706.00	450.00
1707.00	453.33
1708.00	453.33
1709.00	449.67
1710.00	442.67
1711.00	436.67
1712.00	436.00
1713.00	434.00
1714.00	431.67
1715.00	432.33
1716.00	430.00
1717.00	432.00
1718.00	424.00
1719.00	428.33
1720.00	426.33
1721.00	427.33
1722.00	415.33
1723.00	411.33
1724.00	407.33
1725.00	409.33
1726.00	410.00
1727.00	411.00
1728.00	410.33
1729.00	407.00
1730.00	404.33
1731.00	401.67
1732.00	405.00
1733.00	399.67
1734.00	397.00
1735.00	389.67
1736.00	389.67
1737.00	391.00
1738.00	394.00
1739.00	392.00
1740.00	389.33
1741.00	385.33
1742.00	387.67
1743.00	384.00
1744.00	383.33
1745.00	380.33
1746.00	379.67
1747.00	377.67
1748.00	378.33
1749.00	378.00
1750.00	375.67
1751.00	373.33
1752.00	369.33
1753.00	370.00
1754.00	366.67
1755.00	370.33
1756.00	368.67
1757.00	367.67
1758.00	363.33
1759.00	363.67
1760.00	361.67
1761.00	359.00
1762.00	354.33
1763.00	353.00
1764.00	352.33
1765.00	352.33
1766.00	353.67
1767.00	355.67
1768.00	356.00
1769.00	353.00
1770.00	348.33
1771.00	347.00
1772.00	349.33
1773.00	347.00
1774.00	344.33
1775.00	341.33
1776.00	337.67
1777.00	340.00
1778.00	338.00
1779.00	343.33
1780.00	339.67
1781.00	341.00
1782.00	338.00
1783.00	337.00
1784.00	332.67
1785.00	331.33
1786.00	328.67
1787.00	329.33
1788.00	329.67
1789.00	327.67
1790.00	328.00
1791.00	328.67
1792.00	332.00
1793.00	329.67
1794.00	327.67
1795.00	322.00
1796.00	321.67
1797.00	320.67
1798.00	318.00
1799.00	318.33
1800.00	317.00
1801.00	317.33
1802.00	312.67
1803.00	311.00
1804.00	315.00
1805.00	315.33
1806.00	312.33
1807.00	306.67
1808.00	302.67
1809.00	301.67
1810.00	302.00
1811.00	302.00
1812.00	300.33
1813.00	296.67
1814.00	295.67
1815.00	293.33
1816.00	296.67
1817.00	296.00
1818.00	301.00
1819.00	298.00
1820.00	298.33
1821.00	296.00
1822.00	294.33
1823.00	293.00
1824.00	289.67
1825.00	288.00
1826.00	286.33
1827.00	285.00
1828.00	286.33
1829.00	286.67
1830.00	289.67
1831.00	284.67
1832.00	283.00
1833.00	277.33
1834.00	278.00
1835.00	278.00
1836.00	279.67
1837.00	280.33
1838.00	278.67
1839.00	276.00
1840.00	278.67
1841.00	278.67
1842.00	279.00
1843.00	272.33
1844.00	271.00
1845.00	272.33
1846.00	273.33
1847.00	274.00
1848.00	272.67
1849.00	274.00
1850.00	272.33
1851.00	273.00
1852.00	274.00
1853.00	272.33
1854.00	268.67
1855.00	268.00
1856.00	268.67
1857.00	269.00
1858.00	265.00
1859.00	262.00
1860.00	262.33
1861.00	262.33
1862.00	262.67
1863.00	258.67
1864.00	254.67
1865.00	251.67
1866.00	252.00
1867.00	254.33
1868.00	255.33
1869.00	256.00
1870.00	252.67
1871.00	252.33
1872.00	250.33
1873.00	252.00
1874.00	249.67
1875.00	251.00
1876.00	248.67
1877.00	248.33
1878.00	245.00
1879.00	245.33
1880.00	247.33
1881.00	248.33
1882.00	247.67
1883.00	243.00
1884.00	241.00
1885.00	238.67
1886.00	240.67
1887.00	240.00
1888.00	241.67
1889.00	238.00
1890.00	239.33
1891.00	236.67
1892.00	237.00
1893.00	233.33
1894.00	232.67
1895.00	233.67
1896.00	235.00
1897.00	235.33
1898.00	236.00
1899.00	233.67
1900.00	233.33
1901.00	230.33
1902.00	230.33
1903.00	232.00
1904.00	230.33
1905.00	230.00
1906.00	228.33
1907.00	228.67
1908.00	228.67
1909.00	226.67
1910.00	226.67
1911.00	224.67
1912.00	223.33
1913.00	223.67
1914.00	224.33
1915.00	224.00
1916.00	221.33
1917.00	219.33
1918.00	219.00
1919.00	219.00
1920.00	219.00
1921.00	221.33
1922.00	219.33
1923.00	217.67
1924.00	213.67
1925.00	212.33
1926.00	211.00
1927.00	209.33
1928.00	212.00
1929.00	212.33
1930.00	213.67
1931.00	213.00
1932.00	213.00
1933.00	212.67
1934.00	212.67
1935.00	211.33
1936.00	207.33
1937.00	204.33
1938.00	204.00
1939.00	205.67
1940.00	206.00
1941.00	207.67
1942.00	205.33
1943.00	205.33
1944.00	203.67
1945.00	205.33
1946.00	205.00
1947.00	204.00
1948.00	203.00
1949.00	201.67
1950.00	201.00
1951.00	201.00
1952.00	200.00
1953.00	199.00
1954.00	196.00
1955.00	195.00
1956.00	197.00
1957.00	199.00
1958.00	198.00
1959.00	194.33
1960.00	192.67
1961.00	192.67
1962.00	192.00
1963.00	192.00
1964.00	192.67
1965.00	193.00
1966.00	191.67
1967.00	191.00
1968.00	191.00
1969.00	191.33
1970.00	188.33
1971.00	188.00
1972.00	187.00
1973.00	189.00
1974.00	186.67
1975.00	187.67
1976.00	184.67
1977.00	184.67
1978.00	181.67
1979.00	181.00
1980.00	179.67
1981.00	181.00
1982.00	182.00
1983.00	182.67
1984.00	180.67
1985.00	180.33
1986.00	180.33
1987.00	180.67
1988.00	180.00
1989.00	180.33
1990.00	179.33
1991.00	179.33
1992.00	178.00
1993.00	177.33
1994.00	178.00
1995.00	178.00
1996.00	179.67
1997.00	177.67
1998.00	176.00
1999.00	172.00
2000.00	171.67
2001.00	171.33
2002.00	173.33
2003.00	173.00
2004.00	173.33
2005.00	172.67
2006.00	173.33
2007.00	172.33
2008.00	174.33
2009.00	174.00
2010.00	175.33
2011.00	174.00
2012.00	174.00
2013.00	171.67
2014.00	169.00
2015.00	166.00
2016.00	166.00
2017.00	164.67
2018.00	165.00
2019.00	166.33
2020.00	167.00
2021.00	167.00
2022.00	165.33
2023.00	166.33
2024.00	165.67
2025.00	166.67
2026.00	165.67
2027.00	166.67
2028.00	165.33
2029.00	165.33
2030.00	165.33
2031.00	165.33
2032.00	166.67
2033.00	166.67
2034.00	168.00
2035.00	165.33
2036.00	163.33
2037.00	160.33
2038.00	160.67
2039.00	162.00
2040.00	162.33
2041.00	162.00
2042.00	161.00
2043.00	161.67
2044.00	163.00
2045.00	164.00
2046.00	163.00
2047.00	161.00
>>>>>End Processed Spectral Data<<<<<
