SpectraSuite Data File
++++++++++++++++++++++++++++++++++++
Date: Fri Feb 17 17:27:45 PST 2017
User: admin
Dark Spectrum Present: No
Reference Spectrum Present: No
Number of Sampled Component Spectra: 1
Spectrometers: USB2G8485
Integration Time (usec): 100000 (USB2G8485)
Spectra Averaged: 1 (USB2G8485)
Boxcar Smoothing: 1 (USB2G8485)
Correct for Electrical Dark: No (USB2G8485)
Strobe/Lamp Enabled: No (USB2G8485)
Correct for Detector Non-linearity: No (USB2G8485)
Correct for Stray Light: No (USB2G8485)
Number of Pixels in Processed Spectrum: 2048
>>>>>Begin Processed Spectral Data<<<<<
0.00	0.00
1.00	77.00
2.00	116.33
3.00	119.00
4.00	123.67
5.00	126.00
6.00	126.33
7.00	125.00
8.00	125.33
9.00	127.00
10.00	128.33
11.00	128.00
12.00	126.33
13.00	125.33
14.00	125.00
15.00	125.67
16.00	127.33
17.00	129.00
18.00	129.00
19.00	127.67
20.00	127.67
21.00	128.00
22.00	129.00
23.00	130.00
24.00	132.33
25.00	133.00
26.00	135.33
27.00	135.67
28.00	136.67
29.00	134.67
30.00	134.33
31.00	135.33
32.00	137.00
33.00	136.67
34.00	133.67
35.00	132.33
36.00	132.33
37.00	133.67
38.00	133.67
39.00	135.00
40.00	136.67
41.00	137.33
42.00	136.33
43.00	135.33
44.00	135.33
45.00	134.67
46.00	133.67
47.00	133.00
48.00	134.67
49.00	136.67
50.00	138.00
51.00	137.67
52.00	137.00
53.00	135.33
54.00	136.00
55.00	136.00
56.00	137.00
57.00	136.33
58.00	138.00
59.00	139.00
60.00	140.33
61.00	140.33
62.00	139.67
63.00	138.67
64.00	137.00
65.00	135.67
66.00	135.67
67.00	136.33
68.00	137.33
69.00	137.33
70.00	138.33
71.00	140.67
72.00	141.00
73.00	140.00
74.00	138.33
75.00	138.33
76.00	139.00
77.00	139.33
78.00	139.00
79.00	139.67
80.00	139.33
81.00	140.67
82.00	140.67
83.00	142.67
84.00	142.33
85.00	142.67
86.00	143.00
87.00	143.33
88.00	143.67
89.00	144.00
90.00	143.33
91.00	141.00
92.00	139.33
93.00	140.00
94.00	142.33
95.00	142.67
96.00	143.00
97.00	144.33
98.00	145.33
99.00	145.00
100.00	143.00
101.00	143.00
102.00	144.33
103.00	144.33
104.00	144.00
105.00	142.00
106.00	143.00
107.00	143.33
108.00	145.33
109.00	146.67
110.00	148.00
111.00	148.67
112.00	148.00
113.00	147.67
114.00	149.00
115.00	150.00
116.00	151.00
117.00	151.67
118.00	152.00
119.00	153.33
120.00	155.00
121.00	155.00
122.00	155.00
123.00	154.67
124.00	156.00
125.00	157.00
126.00	157.33
127.00	158.33
128.00	158.00
129.00	159.00
130.00	160.00
131.00	160.00
132.00	158.67
133.00	159.00
134.00	161.00
135.00	163.67
136.00	166.00
137.00	165.67
138.00	165.00
139.00	165.67
140.00	169.00
141.00	170.67
142.00	170.67
143.00	170.00
144.00	172.00
145.00	172.33
146.00	173.67
147.00	173.67
148.00	175.33
149.00	177.67
150.00	178.33
151.00	178.67
152.00	181.00
153.00	183.33
154.00	184.33
155.00	183.67
156.00	185.33
157.00	188.67
158.00	189.67
159.00	188.00
160.00	188.67
161.00	193.00
162.00	199.33
163.00	202.33
164.00	200.67
165.00	201.00
166.00	204.00
167.00	207.33
168.00	208.00
169.00	210.67
170.00	212.67
171.00	215.33
172.00	216.67
173.00	221.00
174.00	223.67
175.00	224.67
176.00	226.33
177.00	229.00
178.00	233.33
179.00	236.00
180.00	242.67
181.00	246.33
182.00	249.33
183.00	253.00
184.00	254.33
185.00	260.67
186.00	260.33
187.00	266.00
188.00	267.00
189.00	272.00
190.00	275.00
191.00	279.33
192.00	282.33
193.00	287.00
194.00	291.00
195.00	292.67
196.00	293.67
197.00	296.67
198.00	303.33
199.00	307.33
200.00	306.67
201.00	305.67
202.00	308.33
203.00	315.33
204.00	323.00
205.00	325.33
206.00	328.33
207.00	329.33
208.00	332.33
209.00	332.00
210.00	336.00
211.00	337.00
212.00	344.67
213.00	349.67
214.00	358.33
215.00	363.67
216.00	367.33
217.00	371.33
218.00	374.00
219.00	379.00
220.00	383.67
221.00	388.67
222.00	391.67
223.00	399.67
224.00	400.67
225.00	401.00
226.00	406.00
227.00	415.33
228.00	419.67
229.00	420.67
230.00	420.00
231.00	432.33
232.00	436.67
233.00	444.67
234.00	448.00
235.00	451.33
236.00	455.00
237.00	457.67
238.00	461.67
239.00	472.00
240.00	476.33
241.00	486.00
242.00	491.00
243.00	498.67
244.00	501.00
245.00	504.00
246.00	508.67
247.00	513.00
248.00	516.67
249.00	519.00
250.00	529.67
251.00	531.00
252.00	536.67
253.00	540.33
254.00	544.00
255.00	549.33
256.00	552.00
257.00	559.67
258.00	565.00
259.00	568.33
260.00	575.67
261.00	584.33
262.00	587.00
263.00	591.67
264.00	594.67
265.00	601.67
266.00	603.67
267.00	609.00
268.00	615.67
269.00	625.33
270.00	631.67
271.00	637.67
272.00	642.67
273.00	645.67
274.00	649.33
275.00	661.33
276.00	668.33
277.00	677.67
278.00	679.00
279.00	685.33
280.00	688.33
281.00	692.00
282.00	699.33
283.00	708.67
284.00	716.33
285.00	725.00
286.00	732.33
287.00	738.00
288.00	743.33
289.00	755.33
290.00	760.67
291.00	766.33
292.00	764.00
293.00	777.67
294.00	779.33
295.00	783.33
296.00	780.33
297.00	786.33
298.00	797.33
299.00	814.33
300.00	827.33
301.00	837.67
302.00	844.33
303.00	855.67
304.00	863.67
305.00	866.67
306.00	868.67
307.00	865.33
308.00	881.67
309.00	886.67
310.00	906.00
311.00	908.33
312.00	914.00
313.00	920.67
314.00	929.00
315.00	942.00
316.00	938.33
317.00	941.33
318.00	951.67
319.00	967.33
320.00	977.00
321.00	985.33
322.00	993.33
323.00	997.00
324.00	999.33
325.00	1003.67
326.00	1012.33
327.00	1018.00
328.00	1046.00
329.00	1050.00
330.00	1060.33
331.00	1047.00
332.00	1064.33
333.00	1074.00
334.00	1089.00
335.00	1093.67
336.00	1096.33
337.00	1111.33
338.00	1115.00
339.00	1119.67
340.00	1116.67
341.00	1131.67
342.00	1156.00
343.00	1166.67
344.00	1177.00
345.00	1185.00
346.00	1197.33
347.00	1207.00
348.00	1221.67
349.00	1243.67
350.00	1263.33
351.00	1270.00
352.00	1269.67
353.00	1281.67
354.00	1308.33
355.00	1335.00
356.00	1339.67
357.00	1334.33
358.00	1332.33
359.00	1358.67
360.00	1389.33
361.00	1417.00
362.00	1429.00
363.00	1441.67
364.00	1456.67
365.00	1474.33
366.00	1492.33
367.00	1512.67
368.00	1517.00
369.00	1524.33
370.00	1545.00
371.00	1570.67
372.00	1593.00
373.00	1596.67
374.00	1620.00
375.00	1642.67
376.00	1672.33
377.00	1691.33
378.00	1711.00
379.00	1728.67
380.00	1750.67
381.00	1765.00
382.00	1777.67
383.00	1790.33
384.00	1804.00
385.00	1823.67
386.00	1837.33
387.00	1853.67
388.00	1872.00
389.00	1888.00
390.00	1909.67
391.00	1927.00
392.00	1937.00
393.00	1960.00
394.00	1974.33
395.00	2008.00
396.00	2014.67
397.00	2028.00
398.00	2022.00
399.00	2033.67
400.00	2041.67
401.00	2067.33
402.00	2078.00
403.00	2106.67
404.00	2116.33
405.00	2139.33
406.00	2133.33
407.00	2147.67
408.00	2158.33
409.00	2183.67
410.00	2195.33
411.00	2205.67
412.00	2206.00
413.00	2219.67
414.00	2223.00
415.00	2236.67
416.00	2249.67
417.00	2268.00
418.00	2286.67
419.00	2294.00
420.00	2303.00
421.00	2307.00
422.00	2325.67
423.00	2336.67
424.00	2346.67
425.00	2348.00
426.00	2356.67
427.00	2379.00
428.00	2389.33
429.00	2403.67
430.00	2410.00
431.00	2426.00
432.00	2434.33
433.00	2448.00
434.00	2458.33
435.00	2468.33
436.00	2479.67
437.00	2491.00
438.00	2502.33
439.00	2504.00
440.00	2515.33
441.00	2513.33
442.00	2523.67
443.00	2523.33
444.00	2542.00
445.00	2559.33
446.00	2565.00
447.00	2577.67
448.00	2575.00
449.00	2599.00
450.00	2609.00
451.00	2624.33
452.00	2629.00
453.00	2635.67
454.00	2648.67
455.00	2647.33
456.00	2658.33
457.00	2665.67
458.00	2682.00
459.00	2690.33
460.00	2701.00
461.00	2713.67
462.00	2731.00
463.00	2727.67
464.00	2739.00
465.00	2738.00
466.00	2752.33
467.00	2746.67
468.00	2759.33
469.00	2771.33
470.00	2787.00
471.00	2796.33
472.00	2801.33
473.00	2809.67
474.00	2807.00
475.00	2814.00
476.00	2830.33
477.00	2849.67
478.00	2844.67
479.00	2842.00
480.00	2839.00
481.00	2866.33
482.00	2878.00
483.00	2896.33
484.00	2895.67
485.00	2906.00
486.00	2910.00
487.00	2912.00
488.00	2923.00
489.00	2916.67
490.00	2928.00
491.00	2925.67
492.00	2932.67
493.00	2943.67
494.00	2940.67
495.00	2951.67
496.00	2957.33
497.00	2967.67
498.00	2973.00
499.00	2974.67
500.00	2982.67
501.00	2982.33
502.00	2989.33
503.00	2994.00
504.00	3004.00
505.00	3004.67
506.00	3003.00
507.00	3004.67
508.00	3003.67
509.00	3008.33
510.00	3017.33
511.00	3035.67
512.00	3047.00
513.00	3057.67
514.00	3046.67
515.00	3047.00
516.00	3046.33
517.00	3053.33
518.00	3055.67
519.00	3064.00
520.00	3068.67
521.00	3074.33
522.00	3085.67
523.00	3096.67
524.00	3099.33
525.00	3094.67
526.00	3111.33
527.00	3126.00
528.00	3125.33
529.00	3132.00
530.00	3133.33
531.00	3156.33
532.00	3154.00
533.00	3154.67
534.00	3143.67
535.00	3142.00
536.00	3156.00
537.00	3180.00
538.00	3184.67
539.00	3196.00
540.00	3201.33
541.00	3222.67
542.00	3239.00
543.00	3235.00
544.00	3251.33
545.00	3253.67
546.00	3268.00
547.00	3255.33
548.00	3255.00
549.00	3266.33
550.00	3266.00
551.00	3279.00
552.00	3282.33
553.00	3307.00
554.00	3300.33
555.00	3302.33
556.00	3314.00
557.00	3336.00
558.00	3355.00
559.00	3364.67
560.00	3372.67
561.00	3375.00
562.00	3382.33
563.00	3385.00
564.00	3385.33
565.00	3394.00
566.00	3397.33
567.00	3419.00
568.00	3409.33
569.00	3421.00
570.00	3420.67
571.00	3430.33
572.00	3438.33
573.00	3436.67
574.00	3437.00
575.00	3439.00
576.00	3443.00
577.00	3454.00
578.00	3451.67
579.00	3471.33
580.00	3489.67
581.00	3502.67
582.00	3505.00
583.00	3496.33
584.00	3503.33
585.00	3507.67
586.00	3505.00
587.00	3504.67
588.00	3508.00
589.00	3521.67
590.00	3542.33
591.00	3542.00
592.00	3549.67
593.00	3541.67
594.00	3544.67
595.00	3547.67
596.00	3554.67
597.00	3555.00
598.00	3555.33
599.00	3570.67
600.00	3585.00
601.00	3585.33
602.00	3585.00
603.00	3584.00
604.00	3596.00
605.00	3590.00
606.00	3581.33
607.00	3582.00
608.00	3589.33
609.00	3598.67
610.00	3591.33
611.00	3582.33
612.00	3589.67
613.00	3602.67
614.00	3609.00
615.00	3610.67
616.00	3607.00
617.00	3610.33
618.00	3621.33
619.00	3622.33
620.00	3628.67
621.00	3632.00
622.00	3637.00
623.00	3642.67
624.00	3642.67
625.00	3638.33
626.00	3631.33
627.00	3625.00
628.00	3642.33
629.00	3649.33
630.00	3659.33
631.00	3668.00
632.00	3663.33
633.00	3674.67
634.00	3664.67
635.00	3682.33
636.00	3689.33
637.00	3702.00
638.00	3703.33
639.00	3700.67
640.00	3700.67
641.00	3696.00
642.00	3695.00
643.00	3694.67
644.00	3705.00
645.00	3714.00
646.00	3724.33
647.00	3737.67
648.00	3736.67
649.00	3734.67
650.00	3737.67
651.00	3744.00
652.00	3765.00
653.00	3771.33
654.00	3769.67
655.00	3765.33
656.00	3755.33
657.00	3763.67
658.00	3752.33
659.00	3760.67
660.00	3756.67
661.00	3766.00
662.00	3764.00
663.00	3762.67
664.00	3767.33
665.00	3765.00
666.00	3776.00
667.00	3775.67
668.00	3782.33
669.00	3778.67
670.00	3796.33
671.00	3798.33
672.00	3800.67
673.00	3809.67
674.00	3819.33
675.00	3826.00
676.00	3817.00
677.00	3820.67
678.00	3814.67
679.00	3805.33
680.00	3801.00
681.00	3816.67
682.00	3817.00
683.00	3818.67
684.00	3824.00
685.00	3834.33
686.00	3831.00
687.00	3825.67
688.00	3834.33
689.00	3852.00
690.00	3865.33
691.00	3865.67
692.00	3864.33
693.00	3863.33
694.00	3862.33
695.00	3866.33
696.00	3874.33
697.00	3888.33
698.00	3898.67
699.00	3893.00
700.00	3876.67
701.00	3870.67
702.00	3865.00
703.00	3884.67
704.00	3885.33
705.00	3889.00
706.00	3887.67
707.00	3893.33
708.00	3904.00
709.00	3901.00
710.00	3890.67
711.00	3880.67
712.00	3880.33
713.00	3901.67
714.00	3914.00
715.00	3918.67
716.00	3901.00
717.00	3907.67
718.00	3914.00
719.00	3938.00
720.00	3953.33
721.00	3950.00
722.00	3940.67
723.00	3933.67
724.00	3928.00
725.00	3924.00
726.00	3911.67
727.00	3913.00
728.00	3921.00
729.00	3933.33
730.00	3950.33
731.00	3962.67
732.00	3964.00
733.00	3954.33
734.00	3948.67
735.00	3942.33
736.00	3949.67
737.00	3945.00
738.00	3947.67
739.00	3962.00
740.00	3975.00
741.00	3981.00
742.00	3977.33
743.00	3967.67
744.00	3959.33
745.00	3957.67
746.00	3954.67
747.00	3952.00
748.00	3945.00
749.00	3951.67
750.00	3954.00
751.00	3949.67
752.00	3947.67
753.00	3949.33
754.00	3951.33
755.00	3947.67
756.00	3957.33
757.00	3959.33
758.00	3968.00
759.00	3963.00
760.00	3972.67
761.00	3969.00
762.00	3966.33
763.00	3961.00
764.00	3957.33
765.00	3971.33
766.00	3973.67
767.00	3973.33
768.00	3974.33
769.00	3968.00
770.00	3981.00
771.00	3979.00
772.00	3985.00
773.00	3983.33
774.00	3984.00
775.00	3985.33
776.00	3966.33
777.00	3951.00
778.00	3948.33
779.00	3958.33
780.00	3957.33
781.00	3954.67
782.00	3953.33
783.00	3952.67
784.00	3951.00
785.00	3957.67
786.00	3967.67
787.00	3975.33
788.00	3966.67
789.00	3952.33
790.00	3926.67
791.00	3928.00
792.00	3938.67
793.00	3952.67
794.00	3949.00
795.00	3945.33
796.00	3945.33
797.00	3947.33
798.00	3949.33
799.00	3934.67
800.00	3950.67
801.00	3938.33
802.00	3960.00
803.00	3943.33
804.00	3957.33
805.00	3958.67
806.00	3942.00
807.00	3932.00
808.00	3910.67
809.00	3903.67
810.00	3898.67
811.00	3900.33
812.00	3927.00
813.00	3918.00
814.00	3919.67
815.00	3898.00
816.00	3905.67
817.00	3903.33
818.00	3900.00
819.00	3903.33
820.00	3898.33
821.00	3913.33
822.00	3903.33
823.00	3901.67
824.00	3894.00
825.00	3894.33
826.00	3890.33
827.00	3896.67
828.00	3886.00
829.00	3885.33
830.00	3864.67
831.00	3867.00
832.00	3849.33
833.00	3853.00
834.00	3855.67
835.00	3864.00
836.00	3864.00
837.00	3865.67
838.00	3861.33
839.00	3861.00
840.00	3857.67
841.00	3871.33
842.00	3862.67
843.00	3851.00
844.00	3833.33
845.00	3831.00
846.00	3837.33
847.00	3824.67
848.00	3825.67
849.00	3806.00
850.00	3819.67
851.00	3809.00
852.00	3815.33
853.00	3803.67
854.00	3799.67
855.00	3789.67
856.00	3784.33
857.00	3780.67
858.00	3791.67
859.00	3797.00
860.00	3785.00
861.00	3756.67
862.00	3751.33
863.00	3749.00
864.00	3756.33
865.00	3742.00
866.00	3749.33
867.00	3727.67
868.00	3739.67
869.00	3729.33
870.00	3745.33
871.00	3733.67
872.00	3719.00
873.00	3699.67
874.00	3693.33
875.00	3695.67
876.00	3704.00
877.00	3702.67
878.00	3701.00
879.00	3692.67
880.00	3670.33
881.00	3662.00
882.00	3663.67
883.00	3668.00
884.00	3653.00
885.00	3632.67
886.00	3625.67
887.00	3627.67
888.00	3637.67
889.00	3635.33
890.00	3641.00
891.00	3640.00
892.00	3636.67
893.00	3633.00
894.00	3613.00
895.00	3621.33
896.00	3606.33
897.00	3612.00
898.00	3593.00
899.00	3600.00
900.00	3585.00
901.00	3592.67
902.00	3593.00
903.00	3591.00
904.00	3575.67
905.00	3560.67
906.00	3555.33
907.00	3555.00
908.00	3550.00
909.00	3549.00
910.00	3552.00
911.00	3553.33
912.00	3550.67
913.00	3539.33
914.00	3534.67
915.00	3533.33
916.00	3520.67
917.00	3517.00
918.00	3499.67
919.00	3498.00
920.00	3481.33
921.00	3485.00
922.00	3489.67
923.00	3490.00
924.00	3481.33
925.00	3476.33
926.00	3470.00
927.00	3479.33
928.00	3463.67
929.00	3465.67
930.00	3456.67
931.00	3451.33
932.00	3446.00
933.00	3434.00
934.00	3444.67
935.00	3432.00
936.00	3433.00
937.00	3415.00
938.00	3405.33
939.00	3389.67
940.00	3397.33
941.00	3407.67
942.00	3410.33
943.00	3394.67
944.00	3371.00
945.00	3364.67
946.00	3359.33
947.00	3367.00
948.00	3368.67
949.00	3365.67
950.00	3358.33
951.00	3350.67
952.00	3352.33
953.00	3343.67
954.00	3327.67
955.00	3318.67
956.00	3325.67
957.00	3336.67
958.00	3325.67
959.00	3314.00
960.00	3300.67
961.00	3301.67
962.00	3298.00
963.00	3302.67
964.00	3292.00
965.00	3283.33
966.00	3264.00
967.00	3268.33
968.00	3265.67
969.00	3264.00
970.00	3249.67
971.00	3253.33
972.00	3241.00
973.00	3253.33
974.00	3238.67
975.00	3240.33
976.00	3219.67
977.00	3227.33
978.00	3216.67
979.00	3221.00
980.00	3202.00
981.00	3215.33
982.00	3197.33
983.00	3198.33
984.00	3181.33
985.00	3187.00
986.00	3179.00
987.00	3181.67
988.00	3164.00
989.00	3163.33
990.00	3146.00
991.00	3150.00
992.00	3132.00
993.00	3126.33
994.00	3110.67
995.00	3110.00
996.00	3113.67
997.00	3096.00
998.00	3085.00
999.00	3078.67
1000.00	3082.33
1001.00	3081.67
1002.00	3074.33
1003.00	3078.00
1004.00	3066.33
1005.00	3061.33
1006.00	3042.00
1007.00	3047.33
1008.00	3042.33
1009.00	3044.33
1010.00	3037.00
1011.00	3022.67
1012.00	3013.33
1013.00	2992.33
1014.00	2980.67
1015.00	2967.00
1016.00	2970.00
1017.00	2955.00
1018.00	2957.00
1019.00	2944.67
1020.00	2950.33
1021.00	2934.00
1022.00	2935.33
1023.00	2931.67
1024.00	2929.00
1025.00	2920.00
1026.00	2902.00
1027.00	2892.00
1028.00	2876.00
1029.00	2869.00
1030.00	2868.67
1031.00	2852.67
1032.00	2856.00
1033.00	2850.33
1034.00	2846.00
1035.00	2827.00
1036.00	2824.67
1037.00	2831.00
1038.00	2832.33
1039.00	2821.67
1040.00	2806.67
1041.00	2795.67
1042.00	2799.00
1043.00	2787.33
1044.00	2789.00
1045.00	2749.67
1046.00	2747.00
1047.00	2732.00
1048.00	2745.67
1049.00	2733.67
1050.00	2722.00
1051.00	2712.00
1052.00	2709.67
1053.00	2707.00
1054.00	2700.33
1055.00	2691.00
1056.00	2684.67
1057.00	2679.00
1058.00	2672.67
1059.00	2662.00
1060.00	2646.33
1061.00	2642.00
1062.00	2639.33
1063.00	2634.33
1064.00	2626.33
1065.00	2615.00
1066.00	2613.33
1067.00	2602.67
1068.00	2597.00
1069.00	2594.33
1070.00	2586.67
1071.00	2573.67
1072.00	2560.33
1073.00	2547.00
1074.00	2546.33
1075.00	2547.00
1076.00	2538.00
1077.00	2530.00
1078.00	2507.33
1079.00	2514.00
1080.00	2508.00
1081.00	2510.00
1082.00	2496.33
1083.00	2487.00
1084.00	2464.67
1085.00	2459.00
1086.00	2458.67
1087.00	2477.00
1088.00	2475.67
1089.00	2465.33
1090.00	2456.33
1091.00	2458.67
1092.00	2454.67
1093.00	2446.00
1094.00	2437.00
1095.00	2431.67
1096.00	2419.33
1097.00	2409.67
1098.00	2399.67
1099.00	2399.33
1100.00	2385.67
1101.00	2388.67
1102.00	2381.00
1103.00	2383.00
1104.00	2367.67
1105.00	2367.00
1106.00	2357.33
1107.00	2357.00
1108.00	2338.00
1109.00	2337.00
1110.00	2316.67
1111.00	2319.67
1112.00	2305.67
1113.00	2312.00
1114.00	2299.33
1115.00	2303.33
1116.00	2298.00
1117.00	2306.67
1118.00	2294.00
1119.00	2292.33
1120.00	2282.33
1121.00	2272.00
1122.00	2268.67
1123.00	2260.00
1124.00	2258.33
1125.00	2254.33
1126.00	2242.00
1127.00	2241.00
1128.00	2235.33
1129.00	2237.00
1130.00	2228.00
1131.00	2216.00
1132.00	2214.33
1133.00	2205.33
1134.00	2198.33
1135.00	2181.33
1136.00	2182.33
1137.00	2183.67
1138.00	2177.00
1139.00	2177.33
1140.00	2161.00
1141.00	2162.33
1142.00	2148.67
1143.00	2144.00
1144.00	2140.33
1145.00	2139.33
1146.00	2139.33
1147.00	2139.33
1148.00	2133.33
1149.00	2130.67
1150.00	2120.33
1151.00	2109.67
1152.00	2098.67
1153.00	2100.67
1154.00	2099.67
1155.00	2101.67
1156.00	2083.33
1157.00	2086.00
1158.00	2074.67
1159.00	2072.33
1160.00	2067.00
1161.00	2066.00
1162.00	2064.00
1163.00	2053.00
1164.00	2037.33
1165.00	2029.67
1166.00	2014.00
1167.00	2023.67
1168.00	2025.33
1169.00	2035.33
1170.00	2027.33
1171.00	2019.33
1172.00	2020.33
1173.00	2012.00
1174.00	2002.67
1175.00	1992.33
1176.00	1987.00
1177.00	1988.67
1178.00	1987.33
1179.00	1981.33
1180.00	1978.33
1181.00	1964.33
1182.00	1958.33
1183.00	1951.00
1184.00	1944.33
1185.00	1938.00
1186.00	1930.67
1187.00	1924.67
1188.00	1917.67
1189.00	1910.00
1190.00	1913.67
1191.00	1912.67
1192.00	1915.00
1193.00	1904.00
1194.00	1907.00
1195.00	1893.00
1196.00	1893.00
1197.00	1888.67
1198.00	1886.67
1199.00	1868.33
1200.00	1854.00
1201.00	1851.33
1202.00	1856.67
1203.00	1857.33
1204.00	1849.33
1205.00	1844.00
1206.00	1840.00
1207.00	1834.67
1208.00	1823.33
1209.00	1815.67
1210.00	1808.67
1211.00	1806.67
1212.00	1800.67
1213.00	1795.67
1214.00	1792.00
1215.00	1789.33
1216.00	1786.00
1217.00	1786.33
1218.00	1778.33
1219.00	1765.33
1220.00	1754.67
1221.00	1741.33
1222.00	1751.67
1223.00	1745.00
1224.00	1754.33
1225.00	1744.67
1226.00	1750.00
1227.00	1745.00
1228.00	1745.67
1229.00	1730.33
1230.00	1727.67
1231.00	1712.00
1232.00	1707.00
1233.00	1702.00
1234.00	1701.67
1235.00	1698.00
1236.00	1683.00
1237.00	1671.67
1238.00	1668.00
1239.00	1668.67
1240.00	1663.33
1241.00	1658.00
1242.00	1658.33
1243.00	1652.00
1244.00	1638.67
1245.00	1622.33
1246.00	1619.67
1247.00	1624.67
1248.00	1619.00
1249.00	1615.67
1250.00	1605.33
1251.00	1596.33
1252.00	1595.33
1253.00	1589.33
1254.00	1577.33
1255.00	1563.00
1256.00	1552.00
1257.00	1556.67
1258.00	1555.67
1259.00	1558.67
1260.00	1551.00
1261.00	1546.33
1262.00	1540.33
1263.00	1534.00
1264.00	1528.00
1265.00	1517.33
1266.00	1514.33
1267.00	1504.67
1268.00	1506.67
1269.00	1495.00
1270.00	1491.67
1271.00	1485.67
1272.00	1487.00
1273.00	1479.00
1274.00	1474.00
1275.00	1470.00
1276.00	1465.00
1277.00	1455.00
1278.00	1448.67
1279.00	1449.00
1280.00	1450.33
1281.00	1448.00
1282.00	1443.00
1283.00	1437.00
1284.00	1439.00
1285.00	1440.67
1286.00	1437.67
1287.00	1434.00
1288.00	1427.00
1289.00	1421.00
1290.00	1412.67
1291.00	1405.00
1292.00	1412.67
1293.00	1417.33
1294.00	1432.00
1295.00	1427.00
1296.00	1419.00
1297.00	1407.33
1298.00	1407.00
1299.00	1406.00
1300.00	1403.33
1301.00	1398.00
1302.00	1399.33
1303.00	1398.00
1304.00	1393.67
1305.00	1392.67
1306.00	1380.33
1307.00	1383.67
1308.00	1376.67
1309.00	1387.00
1310.00	1383.00
1311.00	1384.67
1312.00	1374.67
1313.00	1368.67
1314.00	1367.67
1315.00	1372.67
1316.00	1370.00
1317.00	1363.00
1318.00	1363.00
1319.00	1362.67
1320.00	1358.00
1321.00	1349.00
1322.00	1339.33
1323.00	1333.33
1324.00	1327.67
1325.00	1326.00
1326.00	1326.67
1327.00	1326.00
1328.00	1333.33
1329.00	1329.33
1330.00	1327.00
1331.00	1320.67
1332.00	1322.00
1333.00	1318.33
1334.00	1312.00
1335.00	1304.67
1336.00	1301.00
1337.00	1300.00
1338.00	1298.00
1339.00	1295.67
1340.00	1291.33
1341.00	1288.67
1342.00	1285.67
1343.00	1273.00
1344.00	1263.00
1345.00	1251.33
1346.00	1253.33
1347.00	1250.00
1348.00	1253.33
1349.00	1244.33
1350.00	1242.00
1351.00	1242.33
1352.00	1252.00
1353.00	1249.67
1354.00	1234.67
1355.00	1225.00
1356.00	1225.00
1357.00	1232.00
1358.00	1228.67
1359.00	1218.67
1360.00	1210.67
1361.00	1203.33
1362.00	1201.67
1363.00	1197.00
1364.00	1189.00
1365.00	1183.67
1366.00	1184.33
1367.00	1186.33
1368.00	1187.33
1369.00	1176.00
1370.00	1171.67
1371.00	1171.00
1372.00	1170.67
1373.00	1165.33
1374.00	1151.33
1375.00	1140.33
1376.00	1138.67
1377.00	1146.67
1378.00	1152.33
1379.00	1148.67
1380.00	1141.00
1381.00	1136.67
1382.00	1130.33
1383.00	1125.33
1384.00	1121.00
1385.00	1119.00
1386.00	1122.67
1387.00	1118.33
1388.00	1106.00
1389.00	1088.67
1390.00	1083.00
1391.00	1084.00
1392.00	1082.67
1393.00	1084.67
1394.00	1083.00
1395.00	1080.00
1396.00	1073.67
1397.00	1072.00
1398.00	1069.00
1399.00	1067.33
1400.00	1064.67
1401.00	1065.33
1402.00	1058.33
1403.00	1053.00
1404.00	1051.67
1405.00	1054.00
1406.00	1049.33
1407.00	1045.00
1408.00	1040.33
1409.00	1039.67
1410.00	1028.33
1411.00	1023.33
1412.00	1021.67
1413.00	1032.00
1414.00	1032.00
1415.00	1029.67
1416.00	1020.33
1417.00	1012.33
1418.00	1015.00
1419.00	1009.33
1420.00	1008.33
1421.00	998.00
1422.00	1001.67
1423.00	998.00
1424.00	1004.33
1425.00	997.33
1426.00	995.33
1427.00	976.67
1428.00	970.33
1429.00	965.00
1430.00	974.33
1431.00	971.67
1432.00	971.00
1433.00	965.67
1434.00	972.00
1435.00	966.00
1436.00	966.33
1437.00	961.00
1438.00	964.67
1439.00	954.33
1440.00	948.00
1441.00	943.33
1442.00	947.33
1443.00	942.00
1444.00	944.33
1445.00	941.33
1446.00	942.00
1447.00	933.33
1448.00	932.33
1449.00	932.67
1450.00	932.00
1451.00	928.67
1452.00	922.33
1453.00	916.67
1454.00	906.00
1455.00	907.00
1456.00	908.33
1457.00	913.33
1458.00	910.33
1459.00	913.33
1460.00	913.67
1461.00	910.33
1462.00	908.33
1463.00	905.33
1464.00	901.33
1465.00	899.67
1466.00	897.33
1467.00	898.33
1468.00	890.33
1469.00	886.00
1470.00	876.67
1471.00	876.67
1472.00	873.00
1473.00	876.67
1474.00	873.67
1475.00	878.00
1476.00	877.00
1477.00	873.33
1478.00	871.67
1479.00	866.33
1480.00	867.33
1481.00	861.67
1482.00	862.00
1483.00	854.67
1484.00	847.33
1485.00	849.00
1486.00	846.67
1487.00	842.67
1488.00	833.67
1489.00	831.33
1490.00	833.33
1491.00	832.00
1492.00	831.33
1493.00	827.67
1494.00	826.33
1495.00	823.00
1496.00	823.00
1497.00	820.67
1498.00	825.00
1499.00	824.00
1500.00	825.00
1501.00	813.00
1502.00	803.33
1503.00	799.67
1504.00	799.00
1505.00	803.00
1506.00	799.33
1507.00	798.67
1508.00	796.00
1509.00	789.67
1510.00	789.00
1511.00	789.33
1512.00	787.33
1513.00	784.67
1514.00	780.00
1515.00	781.67
1516.00	776.67
1517.00	772.00
1518.00	763.33
1519.00	760.00
1520.00	753.67
1521.00	748.67
1522.00	746.00
1523.00	740.33
1524.00	736.67
1525.00	730.33
1526.00	734.67
1527.00	740.67
1528.00	739.67
1529.00	737.00
1530.00	724.67
1531.00	717.67
1532.00	710.00
1533.00	706.33
1534.00	709.33
1535.00	710.00
1536.00	714.67
1537.00	714.33
1538.00	706.00
1539.00	699.67
1540.00	696.67
1541.00	697.67
1542.00	701.33
1543.00	701.00
1544.00	703.00
1545.00	700.67
1546.00	696.67
1547.00	696.00
1548.00	696.67
1549.00	697.33
1550.00	695.00
1551.00	695.00
1552.00	694.00
1553.00	697.33
1554.00	691.00
1555.00	687.67
1556.00	686.33
1557.00	691.33
1558.00	696.33
1559.00	695.67
1560.00	694.67
1561.00	692.33
1562.00	686.33
1563.00	681.00
1564.00	678.67
1565.00	678.00
1566.00	686.33
1567.00	684.67
1568.00	679.67
1569.00	675.67
1570.00	677.33
1571.00	684.67
1572.00	680.33
1573.00	677.00
1574.00	679.00
1575.00	679.33
1576.00	683.00
1577.00	674.00
1578.00	673.00
1579.00	668.33
1580.00	668.33
1581.00	667.33
1582.00	668.00
1583.00	665.67
1584.00	665.67
1585.00	665.00
1586.00	671.00
1587.00	675.00
1588.00	676.33
1589.00	674.00
1590.00	671.00
1591.00	669.67
1592.00	670.67
1593.00	668.00
1594.00	666.33
1595.00	668.67
1596.00	672.67
1597.00	674.33
1598.00	675.00
1599.00	670.00
1600.00	665.67
1601.00	662.33
1602.00	660.33
1603.00	660.00
1604.00	658.33
1605.00	661.33
1606.00	657.33
1607.00	655.00
1608.00	655.33
1609.00	656.33
1610.00	655.67
1611.00	652.00
1612.00	651.00
1613.00	645.33
1614.00	641.00
1615.00	640.00
1616.00	641.33
1617.00	645.33
1618.00	638.33
1619.00	639.67
1620.00	634.33
1621.00	637.33
1622.00	630.00
1623.00	628.67
1624.00	630.00
1625.00	627.33
1626.00	623.00
1627.00	616.33
1628.00	613.67
1629.00	612.00
1630.00	614.33
1631.00	612.00
1632.00	605.67
1633.00	604.00
1634.00	606.33
1635.00	605.33
1636.00	600.67
1637.00	601.67
1638.00	603.33
1639.00	599.33
1640.00	597.33
1641.00	596.00
1642.00	593.67
1643.00	589.00
1644.00	588.00
1645.00	587.67
1646.00	585.00
1647.00	577.67
1648.00	574.00
1649.00	570.33
1650.00	571.33
1651.00	570.67
1652.00	571.67
1653.00	568.67
1654.00	566.33
1655.00	561.00
1656.00	557.67
1657.00	552.67
1658.00	550.33
1659.00	549.00
1660.00	548.67
1661.00	545.33
1662.00	547.00
1663.00	544.00
1664.00	541.00
1665.00	532.67
1666.00	535.00
1667.00	532.00
1668.00	531.67
1669.00	526.33
1670.00	527.00
1671.00	522.33
1672.00	517.67
1673.00	512.33
1674.00	513.00
1675.00	509.33
1676.00	512.67
1677.00	509.00
1678.00	510.00
1679.00	504.67
1680.00	503.00
1681.00	497.67
1682.00	495.33
1683.00	491.33
1684.00	491.33
1685.00	491.33
1686.00	493.33
1687.00	491.67
1688.00	487.67
1689.00	485.67
1690.00	485.00
1691.00	481.67
1692.00	478.33
1693.00	478.00
1694.00	477.67
1695.00	476.67
1696.00	472.33
1697.00	472.67
1698.00	465.00
1699.00	457.33
1700.00	454.33
1701.00	452.00
1702.00	459.33
1703.00	455.00
1704.00	460.00
1705.00	455.33
1706.00	455.00
1707.00	451.33
1708.00	447.00
1709.00	444.00
1710.00	443.33
1711.00	442.67
1712.00	442.33
1713.00	435.00
1714.00	431.67
1715.00	426.67
1716.00	425.33
1717.00	425.00
1718.00	427.00
1719.00	427.00
1720.00	422.67
1721.00	416.67
1722.00	413.33
1723.00	413.33
1724.00	413.67
1725.00	415.00
1726.00	415.00
1727.00	415.00
1728.00	414.33
1729.00	411.00
1730.00	407.00
1731.00	404.67
1732.00	401.67
1733.00	400.33
1734.00	398.00
1735.00	396.33
1736.00	395.33
1737.00	393.33
1738.00	392.33
1739.00	392.67
1740.00	392.33
1741.00	392.00
1742.00	387.00
1743.00	385.33
1744.00	385.67
1745.00	389.67
1746.00	385.67
1747.00	383.67
1748.00	379.67
1749.00	378.33
1750.00	372.67
1751.00	368.33
1752.00	371.00
1753.00	370.67
1754.00	369.67
1755.00	364.00
1756.00	364.33
1757.00	361.00
1758.00	360.33
1759.00	361.00
1760.00	361.67
1761.00	363.33
1762.00	360.00
1763.00	359.00
1764.00	359.33
1765.00	357.33
1766.00	358.00
1767.00	352.67
1768.00	349.67
1769.00	343.67
1770.00	341.67
1771.00	345.67
1772.00	347.00
1773.00	348.00
1774.00	343.67
1775.00	344.67
1776.00	338.33
1777.00	341.00
1778.00	338.67
1779.00	337.67
1780.00	333.67
1781.00	332.00
1782.00	333.67
1783.00	330.67
1784.00	328.00
1785.00	331.00
1786.00	329.67
1787.00	328.67
1788.00	322.33
1789.00	323.67
1790.00	324.00
1791.00	323.00
1792.00	320.67
1793.00	321.67
1794.00	323.33
1795.00	321.00
1796.00	318.00
1797.00	318.67
1798.00	321.33
1799.00	323.00
1800.00	319.67
1801.00	320.00
1802.00	317.33
1803.00	315.33
1804.00	314.33
1805.00	314.00
1806.00	315.67
1807.00	309.00
1808.00	303.33
1809.00	299.33
1810.00	302.00
1811.00	304.67
1812.00	306.00
1813.00	305.33
1814.00	303.00
1815.00	300.67
1816.00	297.33
1817.00	294.67
1818.00	297.33
1819.00	297.67
1820.00	298.33
1821.00	294.00
1822.00	294.00
1823.00	293.00
1824.00	289.67
1825.00	286.67
1826.00	287.67
1827.00	288.33
1828.00	288.33
1829.00	289.33
1830.00	290.67
1831.00	291.33
1832.00	289.00
1833.00	284.67
1834.00	282.00
1835.00	280.00
1836.00	281.33
1837.00	281.00
1838.00	278.67
1839.00	276.00
1840.00	274.33
1841.00	277.33
1842.00	277.67
1843.00	282.00
1844.00	280.67
1845.00	281.67
1846.00	275.67
1847.00	273.33
1848.00	270.33
1849.00	268.00
1850.00	266.33
1851.00	270.00
1852.00	270.67
1853.00	268.33
1854.00	262.67
1855.00	262.67
1856.00	264.00
1857.00	265.00
1858.00	264.33
1859.00	262.33
1860.00	263.00
1861.00	262.00
1862.00	264.00
1863.00	264.00
1864.00	260.33
1865.00	257.33
1866.00	255.00
1867.00	256.00
1868.00	254.33
1869.00	252.33
1870.00	252.33
1871.00	252.00
1872.00	249.67
1873.00	251.00
1874.00	249.67
1875.00	252.33
1876.00	247.67
1877.00	246.67
1878.00	242.33
1879.00	241.67
1880.00	245.33
1881.00	247.00
1882.00	247.67
1883.00	245.67
1884.00	245.67
1885.00	246.00
1886.00	242.00
1887.00	239.67
1888.00	238.00
1889.00	238.33
1890.00	240.00
1891.00	237.33
1892.00	236.67
1893.00	234.67
1894.00	234.67
1895.00	232.33
1896.00	231.00
1897.00	231.33
1898.00	231.67
1899.00	230.67
1900.00	231.67
1901.00	232.33
1902.00	231.33
1903.00	229.33
1904.00	225.00
1905.00	223.67
1906.00	222.00
1907.00	227.67
1908.00	228.00
1909.00	229.33
1910.00	224.67
1911.00	224.33
1912.00	223.33
1913.00	224.67
1914.00	222.67
1915.00	222.67
1916.00	219.33
1917.00	219.00
1918.00	218.00
1919.00	221.00
1920.00	221.00
1921.00	220.00
1922.00	217.33
1923.00	217.67
1924.00	217.00
1925.00	215.33
1926.00	214.67
1927.00	213.33
1928.00	214.33
1929.00	213.00
1930.00	213.33
1931.00	214.33
1932.00	216.00
1933.00	214.67
1934.00	210.00
1935.00	205.67
1936.00	205.33
1937.00	208.00
1938.00	207.00
1939.00	205.33
1940.00	202.67
1941.00	202.33
1942.00	200.33
1943.00	200.00
1944.00	200.33
1945.00	203.33
1946.00	201.67
1947.00	203.00
1948.00	200.33
1949.00	202.33
1950.00	201.67
1951.00	204.00
1952.00	199.67
1953.00	196.67
1954.00	192.00
1955.00	195.00
1956.00	198.00
1957.00	198.67
1958.00	198.33
1959.00	194.33
1960.00	194.00
1961.00	192.00
1962.00	191.33
1963.00	191.67
1964.00	190.67
1965.00	190.33
1966.00	191.33
1967.00	191.67
1968.00	191.00
1969.00	190.00
1970.00	190.67
1971.00	190.67
1972.00	188.33
1973.00	188.00
1974.00	190.67
1975.00	191.67
1976.00	191.33
1977.00	190.67
1978.00	190.67
1979.00	190.00
1980.00	187.33
1981.00	186.67
1982.00	184.33
1983.00	184.00
1984.00	181.67
1985.00	181.67
1986.00	180.33
1987.00	179.33
1988.00	179.33
1989.00	180.33
1990.00	182.67
1991.00	181.33
1992.00	181.00
1993.00	179.67
1994.00	183.67
1995.00	183.00
1996.00	181.00
1997.00	176.00
1998.00	175.00
1999.00	175.00
2000.00	175.00
2001.00	174.67
2002.00	175.00
2003.00	175.33
2004.00	176.00
2005.00	175.33
2006.00	174.67
2007.00	173.00
2008.00	173.00
2009.00	171.33
2010.00	172.00
2011.00	171.00
2012.00	171.67
2013.00	170.33
2014.00	171.33
2015.00	172.00
2016.00	172.00
2017.00	170.00
2018.00	168.67
2019.00	167.00
2020.00	166.67
2021.00	167.00
2022.00	166.00
2023.00	165.00
2024.00	163.00
2025.00	165.00
2026.00	164.00
2027.00	167.00
2028.00	165.00
2029.00	165.33
2030.00	162.67
2031.00	165.33
2032.00	167.00
2033.00	165.67
2034.00	161.67
2035.00	157.33
2036.00	156.33
2037.00	156.67
2038.00	159.67
2039.00	164.00
2040.00	165.00
2041.00	163.33
2042.00	160.00
2043.00	159.00
2044.00	159.67
2045.00	160.00
2046.00	160.00
2047.00	159.00
>>>>>End Processed Spectral Data<<<<<
