SpectraSuite Data File
++++++++++++++++++++++++++++++++++++
Date: Fri Feb 17 17:36:13 PST 2017
User: admin
Dark Spectrum Present: No
Reference Spectrum Present: No
Number of Sampled Component Spectra: 1
Spectrometers: USB2G8485
Integration Time (usec): 100000 (USB2G8485)
Spectra Averaged: 1 (USB2G8485)
Boxcar Smoothing: 1 (USB2G8485)
Correct for Electrical Dark: No (USB2G8485)
Strobe/Lamp Enabled: No (USB2G8485)
Correct for Detector Non-linearity: No (USB2G8485)
Correct for Stray Light: No (USB2G8485)
Number of Pixels in Processed Spectrum: 2048
>>>>>Begin Processed Spectral Data<<<<<
0.00	0.00
1.00	79.67
2.00	120.67
3.00	122.33
4.00	124.00
5.00	124.33
6.00	124.33
7.00	124.00
8.00	125.67
9.00	128.00
10.00	129.67
11.00	130.00
12.00	130.00
13.00	130.67
14.00	130.67
15.00	130.00
16.00	129.33
17.00	128.33
18.00	127.67
19.00	127.00
20.00	127.00
21.00	127.33
22.00	126.67
23.00	126.33
24.00	127.33
25.00	129.00
26.00	130.67
27.00	131.33
28.00	131.67
29.00	132.00
30.00	131.67
31.00	130.33
32.00	128.67
33.00	128.00
34.00	129.00
35.00	130.33
36.00	129.67
37.00	129.33
38.00	129.33
39.00	131.67
40.00	134.00
41.00	135.00
42.00	135.67
43.00	134.00
44.00	133.00
45.00	132.33
46.00	132.67
47.00	133.67
48.00	132.33
49.00	131.33
50.00	131.33
51.00	132.00
52.00	134.00
53.00	134.67
54.00	137.33
55.00	138.00
56.00	136.67
57.00	134.67
58.00	132.67
59.00	133.33
60.00	133.67
61.00	135.00
62.00	137.00
63.00	140.33
64.00	144.33
65.00	150.00
66.00	178.33
67.00	297.67
68.00	549.67
69.00	836.00
70.00	940.33
71.00	778.67
72.00	504.33
73.00	305.67
74.00	222.33
75.00	183.33
76.00	156.67
77.00	144.00
78.00	140.00
79.00	137.67
80.00	136.00
81.00	135.33
82.00	135.00
83.00	135.00
84.00	135.00
85.00	135.00
86.00	136.00
87.00	136.33
88.00	136.00
89.00	135.33
90.00	135.33
91.00	136.33
92.00	135.67
93.00	134.33
94.00	134.67
95.00	135.67
96.00	135.33
97.00	131.33
98.00	129.33
99.00	130.00
100.00	132.00
101.00	132.33
102.00	131.33
103.00	131.33
104.00	131.33
105.00	131.33
106.00	130.67
107.00	130.67
108.00	133.00
109.00	135.33
110.00	136.33
111.00	136.00
112.00	136.33
113.00	136.67
114.00	136.00
115.00	135.33
116.00	136.33
117.00	136.00
118.00	133.67
119.00	131.33
120.00	131.67
121.00	132.33
122.00	132.33
123.00	132.33
124.00	133.33
125.00	134.67
126.00	135.33
127.00	136.00
128.00	138.00
129.00	138.33
130.00	137.67
131.00	136.00
132.00	137.00
133.00	138.33
134.00	138.67
135.00	139.00
136.00	141.00
137.00	143.67
138.00	145.00
139.00	143.00
140.00	140.33
141.00	138.00
142.00	138.67
143.00	139.00
144.00	139.00
145.00	138.33
146.00	139.00
147.00	140.00
148.00	141.67
149.00	142.33
150.00	142.67
151.00	143.67
152.00	143.33
153.00	143.00
154.00	141.00
155.00	141.67
156.00	142.33
157.00	144.33
158.00	145.67
159.00	147.67
160.00	149.00
161.00	150.00
162.00	149.33
163.00	148.33
164.00	146.33
165.00	145.67
166.00	146.00
167.00	150.00
168.00	157.33
169.00	168.33
170.00	188.00
171.00	283.33
172.00	736.00
173.00	1636.67
174.00	2662.33
175.00	2938.33
176.00	2292.00
177.00	1196.33
178.00	466.67
179.00	197.00
180.00	195.00
181.00	254.33
182.00	354.00
183.00	405.33
184.00	377.00
185.00	278.67
186.00	199.67
187.00	157.67
188.00	148.33
189.00	145.67
190.00	147.33
191.00	147.33
192.00	147.00
193.00	146.33
194.00	145.00
195.00	144.00
196.00	142.67
197.00	144.33
198.00	146.33
199.00	146.67
200.00	145.67
201.00	144.33
202.00	147.33
203.00	155.67
204.00	166.00
205.00	170.00
206.00	165.33
207.00	157.00
208.00	151.33
209.00	147.33
210.00	147.00
211.00	149.33
212.00	156.33
213.00	164.67
214.00	175.33
215.00	186.33
216.00	188.67
217.00	180.00
218.00	165.33
219.00	153.00
220.00	148.67
221.00	146.67
222.00	147.67
223.00	147.67
224.00	147.67
225.00	148.33
226.00	148.67
227.00	149.67
228.00	149.33
229.00	150.00
230.00	153.33
231.00	159.33
232.00	164.33
233.00	167.33
234.00	170.33
235.00	170.00
236.00	166.67
237.00	160.67
238.00	157.00
239.00	157.33
240.00	158.67
241.00	165.33
242.00	177.67
243.00	195.33
244.00	201.67
245.00	200.33
246.00	192.00
247.00	194.00
248.00	196.33
249.00	202.33
250.00	219.33
251.00	250.67
252.00	307.67
253.00	390.00
254.00	560.00
255.00	1694.33
256.00	2893.33
257.00	3990.33
258.00	4095.00
259.00	4095.00
260.00	3887.33
261.00	2754.33
262.00	1479.00
263.00	400.00
264.00	241.00
265.00	218.67
266.00	204.67
267.00	190.67
268.00	182.00
269.00	176.33
270.00	174.33
271.00	171.67
272.00	167.67
273.00	163.67
274.00	160.00
275.00	156.67
276.00	155.00
277.00	152.67
278.00	152.33
279.00	151.33
280.00	150.67
281.00	149.00
282.00	147.67
283.00	147.00
284.00	145.33
285.00	144.00
286.00	144.00
287.00	144.33
288.00	146.00
289.00	146.67
290.00	146.67
291.00	145.00
292.00	143.67
293.00	142.33
294.00	141.33
295.00	140.67
296.00	143.67
297.00	146.67
298.00	147.67
299.00	146.67
300.00	146.00
301.00	147.00
302.00	148.00
303.00	147.33
304.00	146.33
305.00	145.00
306.00	145.33
307.00	146.00
308.00	147.00
309.00	146.67
310.00	146.00
311.00	145.33
312.00	144.67
313.00	144.67
314.00	144.00
315.00	144.00
316.00	143.00
317.00	142.00
318.00	141.00
319.00	140.33
320.00	141.67
321.00	143.67
322.00	146.67
323.00	147.33
324.00	145.67
325.00	143.33
326.00	142.33
327.00	142.33
328.00	144.00
329.00	145.33
330.00	147.67
331.00	147.33
332.00	147.67
333.00	146.67
334.00	145.00
335.00	142.67
336.00	142.00
337.00	142.33
338.00	141.67
339.00	141.00
340.00	140.00
341.00	139.33
342.00	139.00
343.00	140.00
344.00	141.33
345.00	142.00
346.00	141.33
347.00	141.67
348.00	142.00
349.00	143.67
350.00	145.00
351.00	145.00
352.00	145.33
353.00	144.00
354.00	143.67
355.00	142.67
356.00	142.00
357.00	141.67
358.00	142.67
359.00	143.33
360.00	143.67
361.00	142.00
362.00	142.67
363.00	143.67
364.00	144.00
365.00	142.33
366.00	141.67
367.00	142.33
368.00	142.67
369.00	142.00
370.00	142.00
371.00	142.67
372.00	143.67
373.00	143.00
374.00	142.33
375.00	142.67
376.00	143.67
377.00	145.33
378.00	145.67
379.00	145.00
380.00	144.33
381.00	143.33
382.00	143.00
383.00	142.67
384.00	143.33
385.00	143.00
386.00	142.33
387.00	141.33
388.00	142.33
389.00	144.00
390.00	147.33
391.00	148.00
392.00	148.33
393.00	146.00
394.00	144.00
395.00	142.00
396.00	141.00
397.00	142.33
398.00	144.00
399.00	144.33
400.00	145.33
401.00	145.33
402.00	147.00
403.00	147.33
404.00	145.67
405.00	145.00
406.00	146.67
407.00	163.67
408.00	198.33
409.00	235.67
410.00	250.67
411.00	229.33
412.00	197.67
413.00	170.33
414.00	158.33
415.00	150.67
416.00	147.00
417.00	144.67
418.00	143.67
419.00	142.33
420.00	142.67
421.00	142.33
422.00	144.00
423.00	145.67
424.00	146.00
425.00	146.00
426.00	145.33
427.00	146.00
428.00	145.33
429.00	145.00
430.00	144.00
431.00	143.33
432.00	143.00
433.00	145.00
434.00	148.33
435.00	147.67
436.00	145.33
437.00	143.33
438.00	143.67
439.00	146.33
440.00	147.67
441.00	149.00
442.00	147.33
443.00	145.67
444.00	143.67
445.00	143.00
446.00	142.67
447.00	144.00
448.00	144.67
449.00	145.67
450.00	145.67
451.00	146.00
452.00	146.67
453.00	145.67
454.00	146.33
455.00	146.67
456.00	148.00
457.00	147.67
458.00	146.67
459.00	146.00
460.00	145.00
461.00	143.67
462.00	142.00
463.00	144.00
464.00	147.00
465.00	149.33
466.00	146.00
467.00	143.33
468.00	142.67
469.00	144.00
470.00	144.67
471.00	145.00
472.00	144.67
473.00	145.67
474.00	145.33
475.00	145.67
476.00	145.33
477.00	145.67
478.00	146.67
479.00	147.00
480.00	147.67
481.00	147.33
482.00	147.33
483.00	147.67
484.00	147.67
485.00	147.00
486.00	146.33
487.00	147.33
488.00	147.33
489.00	148.00
490.00	147.00
491.00	147.67
492.00	147.33
493.00	147.33
494.00	146.33
495.00	147.00
496.00	147.67
497.00	147.67
498.00	145.33
499.00	144.00
500.00	144.33
501.00	145.33
502.00	146.33
503.00	146.33
504.00	146.33
505.00	145.00
506.00	145.33
507.00	146.00
508.00	149.67
509.00	151.33
510.00	153.33
511.00	152.00
512.00	151.67
513.00	151.33
514.00	153.33
515.00	156.00
516.00	158.33
517.00	160.67
518.00	160.33
519.00	158.67
520.00	155.67
521.00	155.33
522.00	155.00
523.00	155.67
524.00	155.67
525.00	158.00
526.00	159.33
527.00	161.33
528.00	164.00
529.00	166.00
530.00	165.33
531.00	164.00
532.00	160.67
533.00	158.33
534.00	155.00
535.00	156.67
536.00	158.67
537.00	158.33
538.00	157.00
539.00	154.33
540.00	153.33
541.00	154.00
542.00	157.33
543.00	159.67
544.00	163.00
545.00	170.00
546.00	189.33
547.00	209.00
548.00	222.00
549.00	217.33
550.00	207.33
551.00	199.00
552.00	198.67
553.00	205.33
554.00	223.33
555.00	272.00
556.00	629.33
557.00	1910.67
558.00	3160.00
559.00	4095.00
560.00	4095.00
561.00	4095.00
562.00	4095.00
563.00	3907.00
564.00	2921.67
565.00	1710.67
566.00	623.33
567.00	321.00
568.00	233.67
569.00	207.33
570.00	190.67
571.00	181.67
572.00	173.00
573.00	167.33
574.00	162.67
575.00	161.00
576.00	159.00
577.00	158.33
578.00	156.67
579.00	154.67
580.00	154.00
581.00	152.33
582.00	150.67
583.00	148.33
584.00	148.33
585.00	151.00
586.00	154.67
587.00	155.67
588.00	154.67
589.00	152.33
590.00	152.33
591.00	150.67
592.00	149.67
593.00	148.33
594.00	148.00
595.00	146.67
596.00	144.33
597.00	144.33
598.00	145.33
599.00	148.33
600.00	149.67
601.00	150.33
602.00	150.33
603.00	149.00
604.00	147.33
605.00	146.00
606.00	144.33
607.00	144.00
608.00	142.67
609.00	144.33
610.00	144.67
611.00	145.33
612.00	146.33
613.00	148.67
614.00	151.00
615.00	151.33
616.00	150.33
617.00	150.00
618.00	149.67
619.00	149.67
620.00	149.00
621.00	149.67
622.00	149.67
623.00	150.67
624.00	151.00
625.00	150.67
626.00	148.33
627.00	146.67
628.00	146.33
629.00	146.33
630.00	146.33
631.00	145.00
632.00	145.33
633.00	146.00
634.00	149.00
635.00	151.00
636.00	149.67
637.00	148.00
638.00	149.00
639.00	151.33
640.00	155.00
641.00	156.67
642.00	168.67
643.00	320.33
644.00	845.67
645.00	1713.33
646.00	2474.67
647.00	2546.33
648.00	1960.33
649.00	1356.33
650.00	1362.33
651.00	1950.00
652.00	2492.00
653.00	2421.33
654.00	1786.67
655.00	1069.00
656.00	604.67
657.00	384.67
658.00	258.67
659.00	190.33
660.00	161.67
661.00	151.00
662.00	147.67
663.00	146.67
664.00	144.67
665.00	142.67
666.00	141.67
667.00	141.00
668.00	142.67
669.00	143.67
670.00	145.00
671.00	144.33
672.00	144.33
673.00	143.67
674.00	141.67
675.00	140.33
676.00	140.00
677.00	140.33
678.00	141.33
679.00	144.00
680.00	145.00
681.00	143.00
682.00	139.33
683.00	138.00
684.00	140.67
685.00	144.33
686.00	146.00
687.00	144.33
688.00	141.33
689.00	140.33
690.00	139.00
691.00	138.33
692.00	138.00
693.00	138.67
694.00	139.33
695.00	138.33
696.00	138.00
697.00	140.00
698.00	140.33
699.00	140.00
700.00	136.67
701.00	136.00
702.00	136.00
703.00	136.00
704.00	137.00
705.00	138.33
706.00	139.67
707.00	138.33
708.00	137.00
709.00	136.33
710.00	138.67
711.00	140.33
712.00	140.00
713.00	138.67
714.00	137.00
715.00	137.00
716.00	136.67
717.00	137.00
718.00	137.67
719.00	141.67
720.00	146.67
721.00	150.67
722.00	150.67
723.00	150.00
724.00	149.00
725.00	146.67
726.00	143.33
727.00	142.00
728.00	142.67
729.00	143.00
730.00	143.00
731.00	141.33
732.00	140.67
733.00	139.33
734.00	139.67
735.00	140.67
736.00	140.00
737.00	139.33
738.00	139.67
739.00	141.67
740.00	142.33
741.00	140.67
742.00	138.67
743.00	137.67
744.00	138.00
745.00	138.33
746.00	139.33
747.00	139.67
748.00	140.00
749.00	139.67
750.00	139.00
751.00	140.67
752.00	141.00
753.00	141.33
754.00	138.67
755.00	138.00
756.00	138.00
757.00	138.00
758.00	138.00
759.00	137.67
760.00	139.00
761.00	138.33
762.00	138.33
763.00	137.00
764.00	137.33
765.00	136.00
766.00	135.33
767.00	135.00
768.00	135.33
769.00	136.00
770.00	137.00
771.00	138.33
772.00	139.33
773.00	139.00
774.00	138.67
775.00	137.33
776.00	137.00
777.00	137.33
778.00	139.67
779.00	140.00
780.00	138.00
781.00	134.67
782.00	134.00
783.00	135.00
784.00	137.00
785.00	138.67
786.00	138.67
787.00	136.67
788.00	134.00
789.00	134.00
790.00	136.00
791.00	137.67
792.00	139.00
793.00	138.33
794.00	137.67
795.00	135.00
796.00	133.33
797.00	132.33
798.00	132.67
799.00	134.33
800.00	135.33
801.00	136.00
802.00	135.33
803.00	134.67
804.00	135.67
805.00	136.00
806.00	135.67
807.00	136.00
808.00	136.33
809.00	137.33
810.00	136.33
811.00	135.67
812.00	135.33
813.00	135.00
814.00	134.67
815.00	133.33
816.00	132.67
817.00	134.33
818.00	136.67
819.00	139.33
820.00	141.00
821.00	142.67
822.00	141.33
823.00	138.67
824.00	136.67
825.00	136.33
826.00	136.67
827.00	137.33
828.00	140.00
829.00	143.67
830.00	146.67
831.00	147.00
832.00	145.33
833.00	142.00
834.00	138.67
835.00	135.67
836.00	134.33
837.00	134.67
838.00	135.67
839.00	136.00
840.00	136.00
841.00	135.33
842.00	137.33
843.00	138.33
844.00	139.00
845.00	138.00
846.00	137.67
847.00	135.67
848.00	133.00
849.00	131.33
850.00	132.33
851.00	133.33
852.00	133.67
853.00	133.33
854.00	134.67
855.00	135.33
856.00	136.33
857.00	135.67
858.00	135.33
859.00	136.33
860.00	137.00
861.00	136.67
862.00	135.33
863.00	134.67
864.00	135.33
865.00	136.00
866.00	136.67
867.00	135.67
868.00	135.00
869.00	134.00
870.00	134.33
871.00	133.00
872.00	132.00
873.00	132.33
874.00	134.67
875.00	136.67
876.00	135.67
877.00	133.33
878.00	131.67
879.00	132.33
880.00	134.00
881.00	134.67
882.00	134.33
883.00	133.33
884.00	133.33
885.00	134.00
886.00	135.33
887.00	136.33
888.00	136.33
889.00	135.33
890.00	134.33
891.00	134.00
892.00	134.00
893.00	134.67
894.00	135.00
895.00	134.67
896.00	133.67
897.00	134.33
898.00	136.00
899.00	137.00
900.00	136.67
901.00	137.00
902.00	138.67
903.00	140.33
904.00	142.67
905.00	145.33
906.00	148.67
907.00	148.33
908.00	147.33
909.00	144.00
910.00	142.33
911.00	141.33
912.00	141.00
913.00	140.00
914.00	137.00
915.00	135.67
916.00	137.00
917.00	140.00
918.00	141.00
919.00	139.67
920.00	138.00
921.00	137.00
922.00	135.67
923.00	133.67
924.00	133.00
925.00	136.00
926.00	142.33
927.00	148.00
928.00	152.33
929.00	152.67
930.00	149.67
931.00	145.33
932.00	141.67
933.00	140.00
934.00	139.33
935.00	138.00
936.00	136.00
937.00	133.33
938.00	132.00
939.00	133.33
940.00	134.33
941.00	135.00
942.00	134.67
943.00	134.00
944.00	132.33
945.00	132.33
946.00	133.67
947.00	135.33
948.00	136.67
949.00	136.33
950.00	137.00
951.00	136.67
952.00	137.00
953.00	136.67
954.00	135.33
955.00	134.67
956.00	134.67
957.00	134.67
958.00	135.00
959.00	135.67
960.00	139.67
961.00	145.33
962.00	150.67
963.00	152.33
964.00	149.67
965.00	146.67
966.00	144.00
967.00	143.67
968.00	142.67
969.00	142.00
970.00	141.67
971.00	145.67
972.00	155.33
973.00	166.67
974.00	168.67
975.00	163.67
976.00	153.00
977.00	147.00
978.00	143.33
979.00	144.33
980.00	146.67
981.00	149.67
982.00	151.00
983.00	148.67
984.00	144.67
985.00	141.00
986.00	146.67
987.00	242.67
988.00	552.00
989.00	1017.00
990.00	1391.33
991.00	1369.33
992.00	1045.00
993.00	680.33
994.00	469.00
995.00	370.67
996.00	293.67
997.00	233.00
998.00	192.00
999.00	168.33
1000.00	154.67
1001.00	147.33
1002.00	141.00
1003.00	138.00
1004.00	137.00
1005.00	136.33
1006.00	136.67
1007.00	139.00
1008.00	145.00
1009.00	151.00
1010.00	154.00
1011.00	153.67
1012.00	150.00
1013.00	145.67
1014.00	141.33
1015.00	140.67
1016.00	145.33
1017.00	213.00
1018.00	415.67
1019.00	719.00
1020.00	975.00
1021.00	970.67
1022.00	766.67
1023.00	515.67
1024.00	370.67
1025.00	305.33
1026.00	258.00
1027.00	215.67
1028.00	183.67
1029.00	162.33
1030.00	152.33
1031.00	146.00
1032.00	143.33
1033.00	141.00
1034.00	138.67
1035.00	136.67
1036.00	136.33
1037.00	137.00
1038.00	138.33
1039.00	140.00
1040.00	141.33
1041.00	151.33
1042.00	182.33
1043.00	220.00
1044.00	244.00
1045.00	231.00
1046.00	204.00
1047.00	177.67
1048.00	164.33
1049.00	156.67
1050.00	150.00
1051.00	144.00
1052.00	139.33
1053.00	138.33
1054.00	138.00
1055.00	138.00
1056.00	136.33
1057.00	135.33
1058.00	134.67
1059.00	134.67
1060.00	134.67
1061.00	136.00
1062.00	136.67
1063.00	137.33
1064.00	136.33
1065.00	137.00
1066.00	136.33
1067.00	136.33
1068.00	134.00
1069.00	133.67
1070.00	134.67
1071.00	137.33
1072.00	139.00
1073.00	138.67
1074.00	138.33
1075.00	137.67
1076.00	138.00
1077.00	138.00
1078.00	151.67
1079.00	209.00
1080.00	296.00
1081.00	383.33
1082.00	388.00
1083.00	332.67
1084.00	255.00
1085.00	211.33
1086.00	192.33
1087.00	177.33
1088.00	165.00
1089.00	154.67
1090.00	148.67
1091.00	144.00
1092.00	142.33
1093.00	140.67
1094.00	139.67
1095.00	139.67
1096.00	140.33
1097.00	140.00
1098.00	138.67
1099.00	137.00
1100.00	137.33
1101.00	136.33
1102.00	136.00
1103.00	136.33
1104.00	139.67
1105.00	144.33
1106.00	146.33
1107.00	146.67
1108.00	145.67
1109.00	147.67
1110.00	153.00
1111.00	211.67
1112.00	452.00
1113.00	861.67
1114.00	1291.67
1115.00	1399.00
1116.00	1173.33
1117.00	808.00
1118.00	545.67
1119.00	420.33
1120.00	340.00
1121.00	277.33
1122.00	226.33
1123.00	190.00
1124.00	166.33
1125.00	152.33
1126.00	144.00
1127.00	142.00
1128.00	141.33
1129.00	142.00
1130.00	142.00
1131.00	142.67
1132.00	142.00
1133.00	141.00
1134.00	139.33
1135.00	137.67
1136.00	137.00
1137.00	137.67
1138.00	137.67
1139.00	137.00
1140.00	137.33
1141.00	140.00
1142.00	143.00
1143.00	146.33
1144.00	147.67
1145.00	148.33
1146.00	151.00
1147.00	195.00
1148.00	410.33
1149.00	787.33
1150.00	1233.67
1151.00	1541.00
1152.00	1718.33
1153.00	1832.00
1154.00	1810.00
1155.00	1545.33
1156.00	1125.00
1157.00	756.00
1158.00	551.00
1159.00	425.67
1160.00	331.00
1161.00	262.67
1162.00	213.00
1163.00	180.33
1164.00	161.67
1165.00	151.67
1166.00	145.33
1167.00	141.67
1168.00	140.00
1169.00	140.67
1170.00	141.00
1171.00	141.67
1172.00	141.00
1173.00	141.67
1174.00	142.00
1175.00	141.00
1176.00	138.33
1177.00	136.67
1178.00	136.00
1179.00	138.00
1180.00	143.00
1181.00	149.00
1182.00	153.67
1183.00	155.33
1184.00	156.67
1185.00	159.00
1186.00	188.67
1187.00	512.67
1188.00	1518.33
1189.00	2801.33
1190.00	3789.67
1191.00	4014.33
1192.00	3301.00
1193.00	2394.67
1194.00	1464.00
1195.00	1083.33
1196.00	835.67
1197.00	630.67
1198.00	461.33
1199.00	320.67
1200.00	231.00
1201.00	182.67
1202.00	162.00
1203.00	152.00
1204.00	146.67
1205.00	143.00
1206.00	140.00
1207.00	138.67
1208.00	141.00
1209.00	143.33
1210.00	144.33
1211.00	143.33
1212.00	143.67
1213.00	150.67
1214.00	252.67
1215.00	607.00
1216.00	1132.33
1217.00	1596.33
1218.00	1617.00
1219.00	1293.33
1220.00	871.00
1221.00	601.00
1222.00	467.00
1223.00	379.33
1224.00	309.67
1225.00	251.33
1226.00	203.67
1227.00	169.33
1228.00	153.33
1229.00	145.33
1230.00	141.67
1231.00	139.00
1232.00	136.00
1233.00	133.67
1234.00	133.00
1235.00	133.00
1236.00	134.00
1237.00	133.67
1238.00	134.00
1239.00	133.67
1240.00	133.33
1241.00	132.33
1242.00	131.00
1243.00	130.67
1244.00	131.33
1245.00	133.33
1246.00	134.67
1247.00	134.67
1248.00	135.00
1249.00	135.67
1250.00	136.33
1251.00	136.67
1252.00	137.00
1253.00	137.67
1254.00	137.00
1255.00	135.67
1256.00	134.00
1257.00	135.00
1258.00	135.67
1259.00	135.33
1260.00	135.00
1261.00	135.00
1262.00	135.33
1263.00	135.00
1264.00	134.67
1265.00	135.67
1266.00	136.33
1267.00	139.00
1268.00	141.00
1269.00	142.67
1270.00	141.33
1271.00	140.00
1272.00	138.67
1273.00	138.00
1274.00	137.00
1275.00	136.33
1276.00	137.00
1277.00	140.00
1278.00	142.33
1279.00	143.67
1280.00	142.33
1281.00	143.00
1282.00	155.67
1283.00	281.67
1284.00	582.00
1285.00	971.67
1286.00	1223.00
1287.00	1142.00
1288.00	870.33
1289.00	592.33
1290.00	446.33
1291.00	366.33
1292.00	307.33
1293.00	257.00
1294.00	220.67
1295.00	189.00
1296.00	169.00
1297.00	158.67
1298.00	152.67
1299.00	151.33
1300.00	158.33
1301.00	253.00
1302.00	466.67
1303.00	777.00
1304.00	1175.33
1305.00	1530.33
1306.00	1797.00
1307.00	1752.67
1308.00	1439.67
1309.00	1025.00
1310.00	708.67
1311.00	546.00
1312.00	438.00
1313.00	349.00
1314.00	281.33
1315.00	233.00
1316.00	197.00
1317.00	175.33
1318.00	163.00
1319.00	157.33
1320.00	153.33
1321.00	150.00
1322.00	147.67
1323.00	146.00
1324.00	145.67
1325.00	145.67
1326.00	146.00
1327.00	147.00
1328.00	149.00
1329.00	155.33
1330.00	175.67
1331.00	307.33
1332.00	664.00
1333.00	1159.00
1334.00	1655.67
1335.00	2259.33
1336.00	3059.33
1337.00	3745.33
1338.00	4095.00
1339.00	3597.67
1340.00	2783.33
1341.00	1817.67
1342.00	1263.00
1343.00	953.00
1344.00	730.67
1345.00	556.67
1346.00	414.00
1347.00	307.67
1348.00	228.67
1349.00	184.33
1350.00	163.33
1351.00	151.33
1352.00	143.33
1353.00	140.33
1354.00	139.33
1355.00	140.00
1356.00	138.67
1357.00	137.00
1358.00	135.67
1359.00	135.67
1360.00	136.33
1361.00	137.00
1362.00	137.00
1363.00	136.33
1364.00	136.00
1365.00	137.00
1366.00	137.67
1367.00	138.67
1368.00	137.00
1369.00	135.00
1370.00	133.67
1371.00	134.33
1372.00	135.67
1373.00	136.33
1374.00	136.67
1375.00	136.67
1376.00	137.00
1377.00	137.33
1378.00	139.33
1379.00	139.67
1380.00	143.33
1381.00	195.33
1382.00	371.67
1383.00	628.67
1384.00	839.00
1385.00	833.33
1386.00	668.33
1387.00	468.67
1388.00	344.33
1389.00	285.00
1390.00	245.67
1391.00	216.67
1392.00	193.00
1393.00	175.00
1394.00	162.33
1395.00	150.67
1396.00	144.00
1397.00	138.33
1398.00	136.33
1399.00	135.00
1400.00	134.67
1401.00	135.33
1402.00	136.67
1403.00	137.33
1404.00	137.00
1405.00	136.00
1406.00	135.33
1407.00	135.67
1408.00	137.33
1409.00	138.00
1410.00	138.33
1411.00	138.33
1412.00	138.67
1413.00	139.67
1414.00	140.00
1415.00	140.33
1416.00	138.33
1417.00	137.33
1418.00	138.00
1419.00	140.67
1420.00	142.00
1421.00	142.00
1422.00	142.33
1423.00	144.00
1424.00	145.33
1425.00	149.33
1426.00	209.33
1427.00	443.00
1428.00	807.33
1429.00	1133.67
1430.00	1179.33
1431.00	1030.00
1432.00	1052.67
1433.00	1394.67
1434.00	1853.67
1435.00	1960.67
1436.00	1629.33
1437.00	1144.00
1438.00	770.33
1439.00	573.67
1440.00	456.33
1441.00	362.33
1442.00	302.33
1443.00	245.67
1444.00	208.67
1445.00	179.67
1446.00	162.00
1447.00	148.67
1448.00	143.00
1449.00	139.33
1450.00	136.67
1451.00	133.33
1452.00	131.33
1453.00	130.33
1454.00	130.33
1455.00	131.00
1456.00	132.33
1457.00	134.00
1458.00	135.33
1459.00	135.67
1460.00	136.33
1461.00	140.33
1462.00	184.00
1463.00	316.67
1464.00	501.67
1465.00	643.33
1466.00	631.67
1467.00	509.67
1468.00	374.67
1469.00	292.00
1470.00	252.33
1471.00	220.67
1472.00	194.33
1473.00	176.67
1474.00	165.00
1475.00	156.33
1476.00	148.67
1477.00	143.67
1478.00	140.00
1479.00	136.67
1480.00	134.00
1481.00	132.33
1482.00	132.33
1483.00	133.00
1484.00	134.33
1485.00	135.00
1486.00	135.00
1487.00	134.67
1488.00	134.67
1489.00	134.00
1490.00	133.67
1491.00	133.67
1492.00	134.00
1493.00	134.33
1494.00	134.33
1495.00	134.00
1496.00	134.33
1497.00	135.67
1498.00	136.00
1499.00	135.33
1500.00	134.67
1501.00	135.00
1502.00	134.33
1503.00	133.00
1504.00	132.33
1505.00	132.33
1506.00	131.67
1507.00	131.67
1508.00	133.33
1509.00	144.00
1510.00	171.00
1511.00	204.00
1512.00	224.67
1513.00	214.67
1514.00	192.67
1515.00	170.33
1516.00	160.67
1517.00	153.67
1518.00	149.00
1519.00	143.67
1520.00	139.67
1521.00	137.00
1522.00	135.33
1523.00	134.00
1524.00	133.33
1525.00	133.00
1526.00	132.67
1527.00	131.67
1528.00	131.33
1529.00	131.67
1530.00	132.33
1531.00	132.00
1532.00	132.33
1533.00	131.33
1534.00	130.67
1535.00	130.33
1536.00	132.00
1537.00	133.00
1538.00	132.67
1539.00	132.67
1540.00	133.33
1541.00	134.00
1542.00	133.00
1543.00	132.67
1544.00	132.00
1545.00	132.33
1546.00	132.33
1547.00	133.00
1548.00	132.67
1549.00	132.33
1550.00	132.00
1551.00	132.67
1552.00	133.00
1553.00	133.33
1554.00	133.00
1555.00	132.67
1556.00	131.33
1557.00	130.67
1558.00	130.00
1559.00	130.67
1560.00	131.67
1561.00	132.67
1562.00	132.67
1563.00	131.33
1564.00	131.00
1565.00	130.00
1566.00	129.33
1567.00	128.67
1568.00	129.67
1569.00	131.33
1570.00	131.33
1571.00	131.67
1572.00	132.33
1573.00	133.00
1574.00	132.33
1575.00	131.33
1576.00	131.00
1577.00	129.67
1578.00	129.33
1579.00	128.67
1580.00	129.67
1581.00	130.67
1582.00	131.33
1583.00	132.00
1584.00	131.00
1585.00	131.00
1586.00	130.33
1587.00	130.33
1588.00	130.67
1589.00	131.00
1590.00	131.67
1591.00	131.67
1592.00	134.67
1593.00	137.00
1594.00	137.33
1595.00	134.00
1596.00	131.67
1597.00	130.67
1598.00	131.00
1599.00	131.00
1600.00	132.00
1601.00	133.67
1602.00	134.33
1603.00	134.00
1604.00	132.33
1605.00	131.00
1606.00	130.67
1607.00	131.33
1608.00	132.67
1609.00	133.33
1610.00	133.00
1611.00	131.33
1612.00	129.67
1613.00	128.33
1614.00	128.33
1615.00	129.00
1616.00	130.33
1617.00	131.00
1618.00	131.33
1619.00	130.67
1620.00	131.33
1621.00	133.00
1622.00	135.33
1623.00	136.00
1624.00	134.33
1625.00	133.33
1626.00	133.67
1627.00	134.67
1628.00	133.33
1629.00	133.00
1630.00	132.67
1631.00	133.33
1632.00	132.00
1633.00	131.33
1634.00	131.00
1635.00	131.67
1636.00	133.00
1637.00	134.33
1638.00	135.33
1639.00	135.00
1640.00	135.33
1641.00	134.00
1642.00	133.33
1643.00	133.00
1644.00	133.33
1645.00	134.33
1646.00	133.33
1647.00	133.33
1648.00	133.33
1649.00	134.67
1650.00	135.67
1651.00	136.67
1652.00	137.67
1653.00	138.67
1654.00	140.00
1655.00	155.33
1656.00	290.00
1657.00	667.33
1658.00	1142.67
1659.00	1435.33
1660.00	1314.00
1661.00	981.00
1662.00	660.33
1663.00	475.00
1664.00	371.67
1665.00	304.33
1666.00	264.00
1667.00	233.00
1668.00	213.00
1669.00	200.67
1670.00	189.67
1671.00	179.00
1672.00	165.67
1673.00	155.67
1674.00	147.33
1675.00	141.00
1676.00	136.67
1677.00	133.67
1678.00	132.00
1679.00	130.67
1680.00	131.67
1681.00	133.33
1682.00	136.00
1683.00	136.00
1684.00	135.00
1685.00	134.00
1686.00	134.33
1687.00	134.67
1688.00	134.67
1689.00	146.33
1690.00	200.67
1691.00	290.33
1692.00	371.33
1693.00	380.33
1694.00	322.33
1695.00	252.33
1696.00	205.33
1697.00	187.33
1698.00	173.33
1699.00	164.00
1700.00	156.00
1701.00	153.67
1702.00	151.00
1703.00	149.00
1704.00	146.33
1705.00	143.67
1706.00	141.67
1707.00	139.00
1708.00	138.33
1709.00	136.33
1710.00	133.67
1711.00	132.00
1712.00	131.00
1713.00	132.00
1714.00	133.00
1715.00	135.00
1716.00	137.00
1717.00	136.33
1718.00	135.33
1719.00	132.67
1720.00	132.00
1721.00	131.33
1722.00	132.00
1723.00	132.67
1724.00	133.67
1725.00	132.33
1726.00	131.33
1727.00	130.00
1728.00	130.00
1729.00	130.00
1730.00	131.33
1731.00	132.00
1732.00	132.67
1733.00	135.33
1734.00	142.33
1735.00	148.00
1736.00	149.33
1737.00	146.00
1738.00	141.33
1739.00	138.00
1740.00	136.67
1741.00	137.33
1742.00	137.33
1743.00	136.00
1744.00	135.67
1745.00	135.67
1746.00	134.67
1747.00	133.00
1748.00	132.33
1749.00	131.67
1750.00	130.67
1751.00	129.67
1752.00	130.33
1753.00	131.00
1754.00	131.00
1755.00	131.67
1756.00	132.00
1757.00	132.33
1758.00	132.33
1759.00	132.00
1760.00	132.33
1761.00	132.00
1762.00	131.33
1763.00	129.00
1764.00	128.67
1765.00	129.33
1766.00	131.33
1767.00	132.33
1768.00	133.33
1769.00	133.67
1770.00	132.67
1771.00	131.67
1772.00	131.33
1773.00	130.67
1774.00	131.00
1775.00	131.00
1776.00	132.00
1777.00	131.67
1778.00	129.67
1779.00	128.33
1780.00	128.00
1781.00	129.33
1782.00	130.00
1783.00	130.00
1784.00	131.00
1785.00	132.67
1786.00	133.67
1787.00	132.33
1788.00	131.00
1789.00	131.33
1790.00	131.67
1791.00	132.33
1792.00	133.00
1793.00	135.33
1794.00	136.33
1795.00	135.00
1796.00	133.67
1797.00	132.33
1798.00	132.33
1799.00	133.33
1800.00	134.33
1801.00	135.00
1802.00	133.67
1803.00	132.33
1804.00	132.00
1805.00	132.00
1806.00	131.67
1807.00	130.67
1808.00	131.00
1809.00	130.33
1810.00	129.00
1811.00	128.67
1812.00	130.67
1813.00	132.67
1814.00	133.00
1815.00	131.67
1816.00	131.67
1817.00	131.67
1818.00	131.67
1819.00	131.67
1820.00	131.33
1821.00	132.00
1822.00	131.67
1823.00	131.00
1824.00	131.33
1825.00	131.67
1826.00	132.00
1827.00	131.67
1828.00	131.67
1829.00	133.33
1830.00	133.33
1831.00	133.67
1832.00	132.00
1833.00	132.33
1834.00	137.67
1835.00	164.33
1836.00	212.33
1837.00	251.00
1838.00	262.00
1839.00	237.67
1840.00	211.00
1841.00	188.67
1842.00	176.67
1843.00	167.00
1844.00	159.33
1845.00	152.67
1846.00	149.00
1847.00	144.33
1848.00	143.00
1849.00	141.33
1850.00	141.00
1851.00	141.67
1852.00	142.00
1853.00	142.33
1854.00	140.33
1855.00	139.33
1856.00	138.00
1857.00	136.00
1858.00	134.33
1859.00	133.00
1860.00	132.00
1861.00	131.67
1862.00	133.00
1863.00	134.67
1864.00	135.33
1865.00	134.00
1866.00	132.67
1867.00	133.00
1868.00	133.33
1869.00	133.00
1870.00	133.33
1871.00	133.67
1872.00	133.67
1873.00	132.33
1874.00	131.33
1875.00	131.33
1876.00	132.33
1877.00	134.00
1878.00	135.67
1879.00	137.00
1880.00	141.00
1881.00	146.00
1882.00	148.67
1883.00	146.00
1884.00	141.33
1885.00	137.67
1886.00	136.67
1887.00	135.67
1888.00	134.33
1889.00	133.00
1890.00	133.67
1891.00	134.00
1892.00	133.67
1893.00	132.33
1894.00	133.00
1895.00	133.67
1896.00	133.67
1897.00	132.00
1898.00	129.67
1899.00	128.33
1900.00	128.33
1901.00	130.67
1902.00	131.67
1903.00	131.67
1904.00	130.33
1905.00	130.33
1906.00	130.00
1907.00	129.67
1908.00	130.00
1909.00	132.67
1910.00	134.33
1911.00	134.67
1912.00	133.00
1913.00	132.33
1914.00	131.33
1915.00	131.00
1916.00	130.67
1917.00	131.67
1918.00	132.00
1919.00	132.33
1920.00	132.67
1921.00	133.33
1922.00	133.33
1923.00	133.00
1924.00	132.67
1925.00	131.67
1926.00	130.33
1927.00	129.33
1928.00	130.33
1929.00	131.33
1930.00	131.33
1931.00	130.67
1932.00	131.00
1933.00	131.00
1934.00	130.67
1935.00	129.33
1936.00	129.00
1937.00	128.67
1938.00	128.33
1939.00	129.00
1940.00	130.33
1941.00	131.00
1942.00	130.67
1943.00	131.33
1944.00	132.00
1945.00	132.67
1946.00	132.00
1947.00	132.67
1948.00	133.00
1949.00	133.00
1950.00	131.67
1951.00	129.33
1952.00	128.33
1953.00	129.33
1954.00	133.67
1955.00	136.33
1956.00	136.33
1957.00	134.67
1958.00	133.33
1959.00	134.67
1960.00	134.67
1961.00	135.00
1962.00	132.67
1963.00	130.67
1964.00	129.33
1965.00	129.67
1966.00	131.67
1967.00	133.67
1968.00	135.00
1969.00	134.00
1970.00	133.33
1971.00	132.33
1972.00	132.67
1973.00	132.00
1974.00	131.67
1975.00	132.33
1976.00	132.00
1977.00	132.00
1978.00	131.67
1979.00	133.33
1980.00	134.67
1981.00	134.00
1982.00	131.67
1983.00	129.67
1984.00	129.33
1985.00	129.33
1986.00	129.00
1987.00	128.67
1988.00	129.67
1989.00	131.33
1990.00	132.00
1991.00	131.33
1992.00	131.00
1993.00	131.67
1994.00	133.00
1995.00	133.33
1996.00	133.33
1997.00	132.67
1998.00	132.00
1999.00	131.67
2000.00	132.33
2001.00	132.33
2002.00	132.00
2003.00	130.67
2004.00	131.00
2005.00	132.33
2006.00	134.33
2007.00	137.67
2008.00	138.33
2009.00	138.33
2010.00	137.00
2011.00	136.67
2012.00	135.67
2013.00	133.67
2014.00	133.00
2015.00	134.33
2016.00	136.00
2017.00	135.67
2018.00	133.33
2019.00	130.67
2020.00	129.33
2021.00	129.33
2022.00	129.00
2023.00	129.67
2024.00	130.33
2025.00	131.00
2026.00	130.33
2027.00	130.67
2028.00	130.33
2029.00	130.67
2030.00	129.67
2031.00	131.00
2032.00	132.33
2033.00	133.00
2034.00	133.00
2035.00	132.33
2036.00	132.33
2037.00	131.67
2038.00	131.33
2039.00	131.67
2040.00	132.33
2041.00	132.33
2042.00	131.67
2043.00	130.33
2044.00	130.67
2045.00	130.00
2046.00	131.00
2047.00	132.00
>>>>>End Processed Spectral Data<<<<<
