SpectraSuite Data File
++++++++++++++++++++++++++++++++++++
Date: Fri Feb 17 17:34:55 PST 2017
User: admin
Dark Spectrum Present: No
Reference Spectrum Present: No
Number of Sampled Component Spectra: 1
Spectrometers: USB2G8485
Integration Time (usec): 100000 (USB2G8485)
Spectra Averaged: 1 (USB2G8485)
Boxcar Smoothing: 1 (USB2G8485)
Correct for Electrical Dark: No (USB2G8485)
Strobe/Lamp Enabled: No (USB2G8485)
Correct for Detector Non-linearity: No (USB2G8485)
Correct for Stray Light: No (USB2G8485)
Number of Pixels in Processed Spectrum: 2048
>>>>>Begin Processed Spectral Data<<<<<
0.00	0.00
1.00	81.00
2.00	122.33
3.00	123.67
4.00	125.33
5.00	126.00
6.00	126.67
7.00	125.33
8.00	124.67
9.00	124.67
10.00	125.33
11.00	126.67
12.00	127.00
13.00	127.33
14.00	127.33
15.00	129.00
16.00	130.00
17.00	130.00
18.00	128.67
19.00	127.33
20.00	126.67
21.00	125.67
22.00	126.00
23.00	127.67
24.00	129.00
25.00	129.00
26.00	129.33
27.00	130.33
28.00	131.33
29.00	130.67
30.00	128.67
31.00	128.33
32.00	128.67
33.00	130.00
34.00	130.33
35.00	129.67
36.00	130.33
37.00	131.00
38.00	131.00
39.00	131.67
40.00	132.67
41.00	134.00
42.00	132.67
43.00	129.67
44.00	127.67
45.00	127.00
46.00	128.33
47.00	129.67
48.00	131.00
49.00	131.67
50.00	132.33
51.00	132.33
52.00	133.00
53.00	132.67
54.00	134.33
55.00	135.00
56.00	135.67
57.00	135.00
58.00	135.00
59.00	135.00
60.00	135.67
61.00	136.33
62.00	137.00
63.00	138.00
64.00	139.67
65.00	144.67
66.00	164.67
67.00	260.33
68.00	448.33
69.00	663.67
70.00	734.67
71.00	612.00
72.00	406.00
73.00	255.33
74.00	193.00
75.00	164.33
76.00	146.33
77.00	137.33
78.00	134.00
79.00	132.67
80.00	132.33
81.00	132.33
82.00	132.00
83.00	131.33
84.00	131.00
85.00	131.33
86.00	131.33
87.00	131.67
88.00	133.00
89.00	135.33
90.00	136.00
91.00	134.33
92.00	131.67
93.00	131.00
94.00	133.00
95.00	135.00
96.00	135.67
97.00	135.00
98.00	134.67
99.00	134.67
100.00	133.33
101.00	134.33
102.00	136.00
103.00	137.00
104.00	137.33
105.00	136.00
106.00	136.67
107.00	136.00
108.00	135.67
109.00	135.00
110.00	134.00
111.00	133.67
112.00	132.67
113.00	133.67
114.00	135.00
115.00	135.33
116.00	133.67
117.00	132.00
118.00	133.00
119.00	134.00
120.00	134.67
121.00	134.00
122.00	134.00
123.00	134.00
124.00	134.67
125.00	135.00
126.00	135.00
127.00	134.67
128.00	134.67
129.00	135.67
130.00	136.00
131.00	135.67
132.00	135.33
133.00	135.67
134.00	136.67
135.00	137.67
136.00	138.67
137.00	140.00
138.00	139.33
139.00	139.00
140.00	137.67
141.00	136.67
142.00	135.67
143.00	134.67
144.00	135.33
145.00	135.33
146.00	137.67
147.00	139.33
148.00	140.67
149.00	139.33
150.00	137.67
151.00	137.33
152.00	137.67
153.00	139.33
154.00	140.67
155.00	140.67
156.00	140.33
157.00	140.00
158.00	144.00
159.00	145.67
160.00	148.67
161.00	148.33
162.00	148.33
163.00	144.33
164.00	140.67
165.00	140.33
166.00	142.67
167.00	148.00
168.00	153.33
169.00	160.00
170.00	171.67
171.00	232.33
172.00	532.00
173.00	1131.67
174.00	1806.33
175.00	1997.00
176.00	1566.67
177.00	846.33
178.00	357.67
179.00	180.00
180.00	177.00
181.00	207.67
182.00	261.00
183.00	290.00
184.00	272.67
185.00	219.00
186.00	173.67
187.00	149.33
188.00	142.67
189.00	142.33
190.00	143.67
191.00	144.33
192.00	143.33
193.00	145.00
194.00	143.33
195.00	143.00
196.00	140.67
197.00	141.67
198.00	141.67
199.00	142.33
200.00	143.00
201.00	145.00
202.00	148.33
203.00	159.00
204.00	173.33
205.00	183.00
206.00	178.00
207.00	165.67
208.00	155.00
209.00	149.67
210.00	148.67
211.00	151.33
212.00	158.00
213.00	169.00
214.00	182.67
215.00	197.33
216.00	198.67
217.00	186.67
218.00	167.00
219.00	153.33
220.00	149.00
221.00	146.67
222.00	146.33
223.00	143.67
224.00	143.00
225.00	142.67
226.00	144.33
227.00	146.33
228.00	146.67
229.00	147.33
230.00	151.67
231.00	157.67
232.00	165.00
233.00	169.00
234.00	171.67
235.00	171.33
236.00	167.00
237.00	159.33
238.00	153.67
239.00	149.67
240.00	151.00
241.00	155.00
242.00	165.67
243.00	178.00
244.00	182.67
245.00	181.33
246.00	174.67
247.00	172.00
248.00	170.33
249.00	175.00
250.00	189.00
251.00	216.67
252.00	259.00
253.00	316.00
254.00	421.00
255.00	1180.00
256.00	2417.33
257.00	3592.67
258.00	4095.00
259.00	4095.00
260.00	3630.67
261.00	2431.00
262.00	1138.67
263.00	306.00
264.00	205.33
265.00	192.00
266.00	182.00
267.00	174.33
268.00	168.67
269.00	163.67
270.00	158.67
271.00	156.33
272.00	154.33
273.00	152.67
274.00	151.00
275.00	149.33
276.00	147.67
277.00	146.33
278.00	145.00
279.00	144.00
280.00	142.67
281.00	142.33
282.00	142.33
283.00	142.33
284.00	143.67
285.00	144.00
286.00	144.00
287.00	142.00
288.00	140.67
289.00	141.67
290.00	142.00
291.00	143.67
292.00	143.67
293.00	143.67
294.00	143.00
295.00	143.00
296.00	143.67
297.00	146.00
298.00	148.33
299.00	151.67
300.00	153.00
301.00	153.33
302.00	150.33
303.00	146.33
304.00	143.33
305.00	141.67
306.00	142.00
307.00	141.00
308.00	142.00
309.00	142.00
310.00	142.67
311.00	141.67
312.00	140.00
313.00	139.33
314.00	140.67
315.00	142.33
316.00	142.00
317.00	140.00
318.00	138.67
319.00	138.67
320.00	140.67
321.00	142.33
322.00	143.33
323.00	142.67
324.00	141.00
325.00	140.67
326.00	139.67
327.00	140.00
328.00	141.33
329.00	143.33
330.00	144.33
331.00	143.33
332.00	142.67
333.00	142.67
334.00	142.67
335.00	141.33
336.00	142.00
337.00	141.33
338.00	141.33
339.00	139.33
340.00	140.33
341.00	141.00
342.00	140.67
343.00	139.00
344.00	140.00
345.00	141.00
346.00	140.67
347.00	139.67
348.00	139.33
349.00	140.67
350.00	142.00
351.00	143.67
352.00	145.00
353.00	144.67
354.00	143.33
355.00	142.67
356.00	141.67
357.00	141.67
358.00	140.33
359.00	140.00
360.00	141.00
361.00	142.67
362.00	144.33
363.00	143.33
364.00	142.00
365.00	141.33
366.00	142.33
367.00	143.33
368.00	143.33
369.00	144.33
370.00	144.00
371.00	142.33
372.00	139.67
373.00	138.33
374.00	138.67
375.00	138.33
376.00	138.33
377.00	137.33
378.00	136.67
379.00	136.67
380.00	139.33
381.00	142.33
382.00	143.00
383.00	143.00
384.00	142.33
385.00	143.00
386.00	142.00
387.00	142.00
388.00	141.33
389.00	142.00
390.00	142.00
391.00	143.33
392.00	143.33
393.00	143.33
394.00	142.00
395.00	140.67
396.00	140.33
397.00	141.00
398.00	141.67
399.00	141.67
400.00	142.67
401.00	143.67
402.00	143.67
403.00	143.33
404.00	143.33
405.00	144.67
406.00	145.67
407.00	155.67
408.00	174.33
409.00	196.00
410.00	204.33
411.00	195.33
412.00	178.00
413.00	160.67
414.00	150.33
415.00	145.00
416.00	142.33
417.00	142.00
418.00	141.33
419.00	141.67
420.00	140.67
421.00	141.67
422.00	142.00
423.00	142.00
424.00	140.67
425.00	141.33
426.00	142.00
427.00	142.33
428.00	142.33
429.00	142.67
430.00	142.00
431.00	140.67
432.00	139.33
433.00	139.00
434.00	139.33
435.00	139.33
436.00	141.00
437.00	142.00
438.00	143.00
439.00	143.67
440.00	145.00
441.00	145.67
442.00	144.33
443.00	142.33
444.00	140.33
445.00	139.67
446.00	139.33
447.00	140.33
448.00	142.33
449.00	143.67
450.00	145.33
451.00	144.33
452.00	144.33
453.00	143.33
454.00	145.00
455.00	145.33
456.00	145.67
457.00	144.00
458.00	143.33
459.00	142.67
460.00	142.33
461.00	142.67
462.00	144.67
463.00	148.00
464.00	148.67
465.00	146.67
466.00	145.33
467.00	144.33
468.00	145.00
469.00	144.33
470.00	144.00
471.00	143.33
472.00	142.00
473.00	140.67
474.00	140.33
475.00	141.67
476.00	144.00
477.00	146.00
478.00	144.67
479.00	143.67
480.00	142.00
481.00	141.67
482.00	141.33
483.00	141.67
484.00	142.67
485.00	143.33
486.00	143.33
487.00	141.33
488.00	141.33
489.00	141.67
490.00	143.67
491.00	144.67
492.00	145.67
493.00	146.33
494.00	145.33
495.00	144.00
496.00	142.67
497.00	143.00
498.00	143.33
499.00	143.67
500.00	144.67
501.00	146.00
502.00	147.33
503.00	146.00
504.00	145.67
505.00	145.67
506.00	147.00
507.00	146.00
508.00	144.67
509.00	143.67
510.00	144.00
511.00	147.33
512.00	149.00
513.00	150.33
514.00	148.00
515.00	147.00
516.00	146.00
517.00	147.67
518.00	149.67
519.00	151.00
520.00	151.33
521.00	150.67
522.00	152.00
523.00	150.67
524.00	150.67
525.00	149.33
526.00	150.67
527.00	151.33
528.00	154.00
529.00	155.33
530.00	155.00
531.00	153.67
532.00	152.33
533.00	152.33
534.00	150.00
535.00	148.67
536.00	147.00
537.00	147.67
538.00	149.33
539.00	151.33
540.00	152.33
541.00	152.00
542.00	151.33
543.00	152.00
544.00	153.33
545.00	160.00
546.00	170.67
547.00	187.33
548.00	197.33
549.00	196.67
550.00	189.33
551.00	183.00
552.00	182.67
553.00	186.00
554.00	198.33
555.00	231.67
556.00	484.00
557.00	1776.33
558.00	3047.00
559.00	4095.00
560.00	4095.00
561.00	4095.00
562.00	4095.00
563.00	3410.33
564.00	2326.33
565.00	1086.67
566.00	482.33
567.00	269.67
568.00	207.00
569.00	190.00
570.00	179.00
571.00	170.67
572.00	164.33
573.00	158.67
574.00	156.00
575.00	153.67
576.00	152.00
577.00	151.00
578.00	151.67
579.00	151.67
580.00	148.00
581.00	145.00
582.00	143.00
583.00	144.33
584.00	145.33
585.00	146.33
586.00	147.00
587.00	147.33
588.00	147.67
589.00	148.00
590.00	147.00
591.00	145.00
592.00	144.33
593.00	144.00
594.00	144.67
595.00	143.00
596.00	142.00
597.00	141.67
598.00	142.33
599.00	145.67
600.00	147.67
601.00	149.67
602.00	147.67
603.00	146.00
604.00	144.33
605.00	143.00
606.00	141.67
607.00	140.33
608.00	140.33
609.00	140.67
610.00	140.33
611.00	140.00
612.00	141.67
613.00	143.33
614.00	144.00
615.00	143.00
616.00	143.00
617.00	141.67
618.00	140.00
619.00	139.00
620.00	140.00
621.00	141.33
622.00	143.33
623.00	146.00
624.00	146.33
625.00	144.00
626.00	141.00
627.00	139.67
628.00	140.00
629.00	140.67
630.00	141.33
631.00	141.33
632.00	142.00
633.00	143.67
634.00	145.33
635.00	146.00
636.00	144.67
637.00	144.00
638.00	145.33
639.00	147.00
640.00	149.33
641.00	151.00
642.00	159.33
643.00	250.33
644.00	567.33
645.00	1109.00
646.00	1588.33
647.00	1646.67
648.00	1279.33
649.00	903.67
650.00	906.00
651.00	1280.67
652.00	1623.00
653.00	1574.00
654.00	1175.67
655.00	726.67
656.00	438.00
657.00	296.33
658.00	212.67
659.00	173.00
660.00	155.00
661.00	148.33
662.00	144.67
663.00	145.00
664.00	145.00
665.00	143.67
666.00	144.33
667.00	144.67
668.00	143.67
669.00	140.67
670.00	139.67
671.00	141.33
672.00	141.33
673.00	139.33
674.00	137.33
675.00	137.33
676.00	139.00
677.00	140.33
678.00	141.33
679.00	141.67
680.00	142.33
681.00	141.67
682.00	140.33
683.00	139.00
684.00	138.00
685.00	137.67
686.00	137.67
687.00	139.33
688.00	141.33
689.00	142.33
690.00	141.33
691.00	139.33
692.00	136.67
693.00	135.33
694.00	134.33
695.00	134.33
696.00	134.00
697.00	134.67
698.00	135.00
699.00	135.67
700.00	135.67
701.00	136.00
702.00	137.00
703.00	138.00
704.00	139.00
705.00	138.67
706.00	139.67
707.00	140.33
708.00	141.00
709.00	139.00
710.00	137.67
711.00	137.67
712.00	139.67
713.00	140.33
714.00	139.00
715.00	137.00
716.00	137.00
717.00	139.00
718.00	140.00
719.00	143.67
720.00	148.33
721.00	153.67
722.00	154.33
723.00	153.00
724.00	151.00
725.00	149.33
726.00	146.67
727.00	145.33
728.00	144.33
729.00	143.00
730.00	140.67
731.00	138.67
732.00	138.00
733.00	138.00
734.00	138.00
735.00	138.33
736.00	137.00
737.00	136.67
738.00	136.67
739.00	137.33
740.00	137.67
741.00	137.67
742.00	138.33
743.00	137.00
744.00	135.67
745.00	136.33
746.00	139.00
747.00	139.33
748.00	138.67
749.00	138.33
750.00	138.33
751.00	139.67
752.00	140.67
753.00	141.67
754.00	139.33
755.00	137.33
756.00	136.33
757.00	136.67
758.00	136.33
759.00	137.00
760.00	139.00
761.00	140.33
762.00	140.00
763.00	138.67
764.00	136.67
765.00	135.33
766.00	133.33
767.00	133.00
768.00	133.33
769.00	133.67
770.00	134.67
771.00	135.00
772.00	134.67
773.00	132.67
774.00	132.00
775.00	133.00
776.00	134.67
777.00	135.00
778.00	134.33
779.00	134.33
780.00	135.67
781.00	137.33
782.00	138.00
783.00	138.00
784.00	139.33
785.00	140.00
786.00	138.67
787.00	136.00
788.00	134.67
789.00	135.33
790.00	135.00
791.00	134.33
792.00	134.00
793.00	135.00
794.00	134.33
795.00	134.67
796.00	135.33
797.00	136.33
798.00	137.00
799.00	137.67
800.00	139.00
801.00	138.00
802.00	136.33
803.00	135.00
804.00	135.33
805.00	135.00
806.00	134.00
807.00	133.33
808.00	134.33
809.00	135.33
810.00	135.67
811.00	134.33
812.00	134.00
813.00	134.00
814.00	134.33
815.00	133.67
816.00	133.33
817.00	134.67
818.00	135.67
819.00	136.33
820.00	135.67
821.00	137.00
822.00	137.67
823.00	138.33
824.00	137.33
825.00	136.67
826.00	134.33
827.00	134.33
828.00	135.00
829.00	141.67
830.00	148.00
831.00	152.00
832.00	149.67
833.00	146.00
834.00	142.00
835.00	139.33
836.00	136.00
837.00	134.67
838.00	134.67
839.00	134.00
840.00	133.00
841.00	133.33
842.00	136.00
843.00	138.00
844.00	137.33
845.00	135.33
846.00	134.00
847.00	134.00
848.00	134.33
849.00	134.67
850.00	133.67
851.00	133.00
852.00	132.67
853.00	132.67
854.00	132.33
855.00	132.33
856.00	133.67
857.00	134.33
858.00	135.00
859.00	134.67
860.00	135.33
861.00	135.67
862.00	135.67
863.00	136.33
864.00	136.33
865.00	137.33
866.00	136.33
867.00	135.33
868.00	135.67
869.00	136.33
870.00	137.33
871.00	135.00
872.00	133.33
873.00	133.00
874.00	134.33
875.00	135.00
876.00	135.33
877.00	135.33
878.00	135.33
879.00	133.67
880.00	132.33
881.00	131.67
882.00	132.67
883.00	133.33
884.00	133.67
885.00	134.00
886.00	135.67
887.00	137.33
888.00	138.33
889.00	137.33
890.00	135.67
891.00	134.67
892.00	134.67
893.00	135.67
894.00	135.67
895.00	134.00
896.00	134.00
897.00	134.33
898.00	135.00
899.00	136.00
900.00	136.33
901.00	137.67
902.00	137.33
903.00	137.67
904.00	141.00
905.00	147.33
906.00	153.00
907.00	153.67
908.00	149.00
909.00	144.00
910.00	140.33
911.00	140.00
912.00	138.67
913.00	138.00
914.00	136.67
915.00	137.00
916.00	137.67
917.00	137.67
918.00	138.67
919.00	140.00
920.00	140.67
921.00	141.33
922.00	139.67
923.00	138.33
924.00	138.00
925.00	142.00
926.00	148.33
927.00	156.67
928.00	160.67
929.00	159.67
930.00	153.67
931.00	148.33
932.00	145.00
933.00	141.00
934.00	137.67
935.00	136.00
936.00	137.00
937.00	138.00
938.00	137.67
939.00	136.33
940.00	135.33
941.00	134.33
942.00	133.00
943.00	132.67
944.00	132.67
945.00	133.33
946.00	133.67
947.00	133.00
948.00	131.67
949.00	131.33
950.00	133.00
951.00	135.33
952.00	135.33
953.00	135.00
954.00	134.67
955.00	135.33
956.00	135.33
957.00	134.00
958.00	131.67
959.00	131.67
960.00	135.33
961.00	143.00
962.00	151.33
963.00	154.67
964.00	154.67
965.00	151.33
966.00	150.00
967.00	148.67
968.00	146.33
969.00	142.67
970.00	139.33
971.00	141.33
972.00	151.33
973.00	162.00
974.00	164.33
975.00	159.67
976.00	151.00
977.00	146.67
978.00	143.67
979.00	144.00
980.00	147.00
981.00	151.67
982.00	154.00
983.00	153.33
984.00	151.00
985.00	150.00
986.00	157.33
987.00	282.67
988.00	690.67
989.00	1285.33
990.00	1767.33
991.00	1733.00
992.00	1327.33
993.00	848.67
994.00	564.33
995.00	427.00
996.00	331.00
997.00	259.00
998.00	205.67
999.00	174.67
1000.00	155.33
1001.00	145.67
1002.00	138.67
1003.00	136.33
1004.00	135.67
1005.00	136.00
1006.00	136.33
1007.00	139.67
1008.00	147.67
1009.00	154.67
1010.00	159.33
1011.00	160.00
1012.00	157.33
1013.00	151.00
1014.00	144.00
1015.00	142.00
1016.00	147.33
1017.00	228.33
1018.00	501.67
1019.00	900.67
1020.00	1246.00
1021.00	1226.33
1022.00	957.67
1023.00	624.67
1024.00	434.00
1025.00	345.33
1026.00	280.00
1027.00	230.33
1028.00	191.00
1029.00	168.00
1030.00	156.33
1031.00	151.67
1032.00	148.00
1033.00	144.33
1034.00	140.33
1035.00	137.67
1036.00	138.00
1037.00	138.33
1038.00	138.00
1039.00	137.67
1040.00	138.33
1041.00	154.00
1042.00	197.33
1043.00	249.00
1044.00	281.67
1045.00	264.00
1046.00	228.00
1047.00	192.33
1048.00	175.00
1049.00	164.00
1050.00	155.33
1051.00	150.33
1052.00	146.67
1053.00	144.00
1054.00	141.00
1055.00	138.67
1056.00	137.33
1057.00	137.33
1058.00	137.00
1059.00	136.33
1060.00	136.00
1061.00	138.00
1062.00	138.67
1063.00	137.00
1064.00	134.67
1065.00	135.00
1066.00	135.67
1067.00	134.67
1068.00	133.00
1069.00	132.67
1070.00	132.67
1071.00	134.33
1072.00	136.00
1073.00	136.67
1074.00	136.67
1075.00	135.67
1076.00	135.67
1077.00	136.00
1078.00	153.67
1079.00	232.67
1080.00	354.67
1081.00	467.33
1082.00	474.00
1083.00	397.33
1084.00	297.33
1085.00	235.00
1086.00	206.67
1087.00	189.33
1088.00	174.67
1089.00	162.00
1090.00	152.33
1091.00	146.00
1092.00	141.67
1093.00	139.67
1094.00	140.00
1095.00	140.67
1096.00	140.00
1097.00	138.67
1098.00	137.33
1099.00	136.00
1100.00	135.67
1101.00	135.00
1102.00	136.00
1103.00	138.33
1104.00	143.33
1105.00	148.33
1106.00	151.00
1107.00	150.33
1108.00	150.00
1109.00	153.00
1110.00	165.00
1111.00	240.33
1112.00	548.00
1113.00	1070.67
1114.00	1618.00
1115.00	1762.67
1116.00	1463.00
1117.00	992.67
1118.00	646.67
1119.00	496.00
1120.00	397.00
1121.00	318.33
1122.00	250.00
1123.00	202.00
1124.00	174.00
1125.00	158.00
1126.00	150.67
1127.00	146.00
1128.00	147.67
1129.00	149.67
1130.00	149.67
1131.00	146.67
1132.00	142.33
1133.00	140.00
1134.00	139.00
1135.00	141.33
1136.00	141.67
1137.00	140.33
1138.00	137.33
1139.00	138.00
1140.00	140.33
1141.00	142.67
1142.00	144.00
1143.00	147.00
1144.00	151.00
1145.00	153.00
1146.00	157.33
1147.00	214.67
1148.00	499.00
1149.00	1003.33
1150.00	1581.00
1151.00	1976.00
1152.00	2191.00
1153.00	2342.33
1154.00	2311.67
1155.00	1976.00
1156.00	1428.00
1157.00	949.33
1158.00	674.33
1159.00	511.67
1160.00	388.00
1161.00	301.33
1162.00	234.67
1163.00	191.67
1164.00	165.00
1165.00	153.00
1166.00	146.67
1167.00	145.33
1168.00	145.67
1169.00	146.00
1170.00	145.00
1171.00	144.67
1172.00	144.67
1173.00	145.00
1174.00	144.00
1175.00	143.00
1176.00	141.00
1177.00	140.00
1178.00	140.00
1179.00	142.00
1180.00	146.33
1181.00	152.00
1182.00	156.67
1183.00	158.33
1184.00	160.33
1185.00	165.67
1186.00	207.00
1187.00	613.33
1188.00	1872.00
1189.00	3143.00
1190.00	4047.00
1191.00	4095.00
1192.00	3734.00
1193.00	2932.67
1194.00	1999.00
1195.00	1331.33
1196.00	1011.00
1197.00	758.00
1198.00	536.67
1199.00	370.67
1200.00	252.67
1201.00	192.67
1202.00	168.00
1203.00	158.33
1204.00	151.67
1205.00	146.00
1206.00	143.67
1207.00	143.33
1208.00	144.33
1209.00	144.00
1210.00	143.33
1211.00	143.67
1212.00	144.67
1213.00	157.33
1214.00	289.67
1215.00	739.67
1216.00	1416.67
1217.00	2021.67
1218.00	2060.33
1219.00	1638.67
1220.00	1085.33
1221.00	730.00
1222.00	562.33
1223.00	448.33
1224.00	359.33
1225.00	281.33
1226.00	222.33
1227.00	181.67
1228.00	160.33
1229.00	147.67
1230.00	141.33
1231.00	140.00
1232.00	139.33
1233.00	138.33
1234.00	136.67
1235.00	136.00
1236.00	135.33
1237.00	134.67
1238.00	134.33
1239.00	134.33
1240.00	134.67
1241.00	134.33
1242.00	134.00
1243.00	133.33
1244.00	133.33
1245.00	134.33
1246.00	136.00
1247.00	137.00
1248.00	136.00
1249.00	134.67
1250.00	133.67
1251.00	134.67
1252.00	135.00
1253.00	135.33
1254.00	135.33
1255.00	136.00
1256.00	136.00
1257.00	136.33
1258.00	135.67
1259.00	136.00
1260.00	136.00
1261.00	136.67
1262.00	136.67
1263.00	137.00
1264.00	137.33
1265.00	137.33
1266.00	137.67
1267.00	139.00
1268.00	140.67
1269.00	140.00
1270.00	138.33
1271.00	136.33
1272.00	136.33
1273.00	136.00
1274.00	136.33
1275.00	137.00
1276.00	138.33
1277.00	141.00
1278.00	142.33
1279.00	143.67
1280.00	145.00
1281.00	146.67
1282.00	163.00
1283.00	318.67
1284.00	708.67
1285.00	1219.33
1286.00	1544.00
1287.00	1444.00
1288.00	1089.00
1289.00	729.67
1290.00	529.33
1291.00	421.00
1292.00	342.00
1293.00	283.33
1294.00	240.33
1295.00	208.67
1296.00	181.33
1297.00	164.67
1298.00	155.67
1299.00	153.33
1300.00	170.67
1301.00	294.00
1302.00	574.67
1303.00	982.00
1304.00	1496.67
1305.00	1957.67
1306.00	2299.33
1307.00	2231.33
1308.00	1818.67
1309.00	1270.00
1310.00	860.00
1311.00	651.67
1312.00	514.00
1313.00	411.00
1314.00	321.33
1315.00	257.67
1316.00	209.33
1317.00	184.67
1318.00	170.00
1319.00	163.00
1320.00	156.67
1321.00	153.33
1322.00	149.33
1323.00	145.33
1324.00	142.67
1325.00	143.67
1326.00	147.00
1327.00	150.33
1328.00	153.67
1329.00	161.00
1330.00	185.67
1331.00	358.67
1332.00	831.67
1333.00	1471.33
1334.00	2090.33
1335.00	2818.33
1336.00	3468.00
1337.00	3988.33
1338.00	4095.00
1339.00	4046.33
1340.00	3355.33
1341.00	2485.67
1342.00	1548.67
1343.00	1163.33
1344.00	882.33
1345.00	654.33
1346.00	481.00
1347.00	345.00
1348.00	257.00
1349.00	198.00
1350.00	170.33
1351.00	157.33
1352.00	148.00
1353.00	143.00
1354.00	140.00
1355.00	141.00
1356.00	143.67
1357.00	142.33
1358.00	140.00
1359.00	137.67
1360.00	137.67
1361.00	137.67
1362.00	137.67
1363.00	137.67
1364.00	137.67
1365.00	136.67
1366.00	135.33
1367.00	134.00
1368.00	133.00
1369.00	133.33
1370.00	133.67
1371.00	134.00
1372.00	134.00
1373.00	134.00
1374.00	134.00
1375.00	135.00
1376.00	135.00
1377.00	135.33
1378.00	136.33
1379.00	139.33
1380.00	147.00
1381.00	216.67
1382.00	444.00
1383.00	782.00
1384.00	1049.00
1385.00	1042.00
1386.00	824.33
1387.00	571.67
1388.00	410.67
1389.00	332.33
1390.00	278.00
1391.00	241.67
1392.00	207.67
1393.00	186.00
1394.00	165.33
1395.00	152.00
1396.00	142.67
1397.00	139.67
1398.00	138.67
1399.00	139.00
1400.00	140.00
1401.00	140.67
1402.00	140.00
1403.00	136.00
1404.00	135.67
1405.00	136.00
1406.00	137.67
1407.00	137.33
1408.00	138.33
1409.00	140.00
1410.00	141.67
1411.00	142.33
1412.00	141.67
1413.00	142.33
1414.00	142.33
1415.00	142.33
1416.00	141.00
1417.00	140.67
1418.00	141.33
1419.00	140.67
1420.00	140.67
1421.00	140.33
1422.00	141.67
1423.00	144.67
1424.00	147.00
1425.00	153.00
1426.00	229.00
1427.00	533.00
1428.00	999.67
1429.00	1434.00
1430.00	1491.67
1431.00	1300.67
1432.00	1317.33
1433.00	1743.33
1434.00	2324.33
1435.00	2453.00
1436.00	2038.33
1437.00	1425.67
1438.00	944.33
1439.00	700.00
1440.00	543.00
1441.00	428.67
1442.00	340.00
1443.00	272.00
1444.00	223.00
1445.00	189.00
1446.00	167.00
1447.00	153.00
1448.00	143.00
1449.00	137.00
1450.00	134.67
1451.00	134.33
1452.00	133.67
1453.00	132.67
1454.00	132.67
1455.00	134.33
1456.00	136.33
1457.00	138.00
1458.00	138.67
1459.00	139.00
1460.00	138.00
1461.00	141.67
1462.00	198.33
1463.00	371.00
1464.00	614.00
1465.00	801.67
1466.00	783.33
1467.00	623.67
1468.00	442.67
1469.00	336.00
1470.00	281.67
1471.00	241.67
1472.00	211.00
1473.00	188.33
1474.00	173.33
1475.00	161.00
1476.00	152.67
1477.00	145.00
1478.00	140.00
1479.00	136.67
1480.00	135.33
1481.00	134.33
1482.00	133.33
1483.00	131.67
1484.00	130.67
1485.00	130.67
1486.00	130.67
1487.00	131.00
1488.00	131.67
1489.00	133.00
1490.00	133.33
1491.00	133.33
1492.00	132.67
1493.00	133.67
1494.00	134.67
1495.00	135.33
1496.00	134.67
1497.00	133.67
1498.00	132.33
1499.00	132.00
1500.00	131.33
1501.00	131.33
1502.00	130.67
1503.00	131.67
1504.00	133.33
1505.00	134.67
1506.00	134.33
1507.00	133.67
1508.00	136.00
1509.00	148.00
1510.00	181.33
1511.00	222.00
1512.00	249.33
1513.00	238.67
1514.00	210.67
1515.00	181.00
1516.00	166.67
1517.00	158.67
1518.00	153.67
1519.00	148.67
1520.00	143.33
1521.00	140.33
1522.00	138.33
1523.00	137.33
1524.00	135.00
1525.00	132.67
1526.00	131.33
1527.00	130.67
1528.00	130.67
1529.00	129.67
1530.00	129.67
1531.00	130.00
1532.00	131.00
1533.00	131.33
1534.00	130.67
1535.00	129.33
1536.00	129.67
1537.00	130.00
1538.00	132.00
1539.00	132.33
1540.00	133.67
1541.00	134.33
1542.00	134.33
1543.00	134.00
1544.00	133.33
1545.00	133.67
1546.00	133.00
1547.00	132.33
1548.00	133.00
1549.00	133.67
1550.00	133.33
1551.00	132.33
1552.00	131.67
1553.00	132.33
1554.00	132.00
1555.00	131.67
1556.00	131.00
1557.00	131.00
1558.00	131.00
1559.00	131.33
1560.00	131.67
1561.00	132.00
1562.00	132.00
1563.00	132.67
1564.00	132.00
1565.00	131.67
1566.00	131.33
1567.00	132.00
1568.00	132.33
1569.00	132.33
1570.00	132.67
1571.00	133.00
1572.00	133.00
1573.00	133.33
1574.00	133.00
1575.00	132.67
1576.00	132.67
1577.00	134.00
1578.00	134.33
1579.00	133.00
1580.00	131.33
1581.00	130.00
1582.00	129.33
1583.00	128.33
1584.00	129.67
1585.00	132.67
1586.00	135.00
1587.00	134.33
1588.00	133.67
1589.00	133.00
1590.00	133.33
1591.00	132.33
1592.00	133.67
1593.00	134.33
1594.00	134.67
1595.00	131.67
1596.00	130.00
1597.00	128.67
1598.00	128.67
1599.00	128.33
1600.00	129.33
1601.00	130.67
1602.00	132.00
1603.00	132.33
1604.00	132.33
1605.00	132.67
1606.00	132.33
1607.00	132.33
1608.00	131.67
1609.00	132.00
1610.00	132.00
1611.00	132.33
1612.00	132.00
1613.00	131.67
1614.00	131.00
1615.00	130.67
1616.00	131.00
1617.00	131.33
1618.00	131.67
1619.00	132.00
1620.00	134.00
1621.00	134.67
1622.00	135.33
1623.00	133.67
1624.00	132.33
1625.00	132.00
1626.00	133.33
1627.00	133.67
1628.00	132.33
1629.00	131.00
1630.00	132.00
1631.00	132.33
1632.00	131.33
1633.00	129.67
1634.00	130.67
1635.00	132.33
1636.00	134.00
1637.00	135.33
1638.00	136.33
1639.00	136.33
1640.00	135.33
1641.00	135.33
1642.00	136.00
1643.00	136.33
1644.00	135.67
1645.00	135.67
1646.00	136.00
1647.00	136.67
1648.00	136.00
1649.00	135.00
1650.00	134.67
1651.00	135.33
1652.00	136.33
1653.00	138.33
1654.00	141.67
1655.00	164.00
1656.00	339.67
1657.00	813.33
1658.00	1401.00
1659.00	1780.00
1660.00	1632.00
1661.00	1223.33
1662.00	801.67
1663.00	562.67
1664.00	427.67
1665.00	343.67
1666.00	293.00
1667.00	263.00
1668.00	239.33
1669.00	221.00
1670.00	202.33
1671.00	188.67
1672.00	178.33
1673.00	165.00
1674.00	153.33
1675.00	143.00
1676.00	138.33
1677.00	136.67
1678.00	135.33
1679.00	134.00
1680.00	132.67
1681.00	133.33
1682.00	135.67
1683.00	137.33
1684.00	138.33
1685.00	137.67
1686.00	136.33
1687.00	135.33
1688.00	136.00
1689.00	149.67
1690.00	224.67
1691.00	337.33
1692.00	446.00
1693.00	454.33
1694.00	386.67
1695.00	295.67
1696.00	231.67
1697.00	201.67
1698.00	183.00
1699.00	173.33
1700.00	166.00
1701.00	159.67
1702.00	157.33
1703.00	154.00
1704.00	152.33
1705.00	146.33
1706.00	141.67
1707.00	137.33
1708.00	135.67
1709.00	134.00
1710.00	133.33
1711.00	133.33
1712.00	133.00
1713.00	135.00
1714.00	136.33
1715.00	138.00
1716.00	137.00
1717.00	135.33
1718.00	133.67
1719.00	132.33
1720.00	132.00
1721.00	131.67
1722.00	131.67
1723.00	131.67
1724.00	131.67
1725.00	131.00
1726.00	131.33
1727.00	132.00
1728.00	132.67
1729.00	131.67
1730.00	130.33
1731.00	129.33
1732.00	130.00
1733.00	134.00
1734.00	142.33
1735.00	151.33
1736.00	153.33
1737.00	149.00
1738.00	142.67
1739.00	139.33
1740.00	137.67
1741.00	135.67
1742.00	135.00
1743.00	134.67
1744.00	134.33
1745.00	133.33
1746.00	133.00
1747.00	133.00
1748.00	133.33
1749.00	133.33
1750.00	132.33
1751.00	130.67
1752.00	130.00
1753.00	131.00
1754.00	132.67
1755.00	133.33
1756.00	133.00
1757.00	132.00
1758.00	132.33
1759.00	133.33
1760.00	133.00
1761.00	130.33
1762.00	127.33
1763.00	126.67
1764.00	128.00
1765.00	129.33
1766.00	130.33
1767.00	130.00
1768.00	130.33
1769.00	130.33
1770.00	131.67
1771.00	132.67
1772.00	134.00
1773.00	133.67
1774.00	134.33
1775.00	134.00
1776.00	133.33
1777.00	132.67
1778.00	133.33
1779.00	135.00
1780.00	134.67
1781.00	133.00
1782.00	131.67
1783.00	131.33
1784.00	133.00
1785.00	133.67
1786.00	134.33
1787.00	134.00
1788.00	134.67
1789.00	135.00
1790.00	134.67
1791.00	133.00
1792.00	132.67
1793.00	132.33
1794.00	132.33
1795.00	131.67
1796.00	131.00
1797.00	131.33
1798.00	131.67
1799.00	133.67
1800.00	135.33
1801.00	136.00
1802.00	135.00
1803.00	132.00
1804.00	130.67
1805.00	130.33
1806.00	131.00
1807.00	130.00
1808.00	129.33
1809.00	129.33
1810.00	130.67
1811.00	130.67
1812.00	129.67
1813.00	128.33
1814.00	129.33
1815.00	130.33
1816.00	130.33
1817.00	128.67
1818.00	128.00
1819.00	129.00
1820.00	131.33
1821.00	133.00
1822.00	133.67
1823.00	132.33
1824.00	132.67
1825.00	132.67
1826.00	133.33
1827.00	132.67
1828.00	133.33
1829.00	134.67
1830.00	134.67
1831.00	132.33
1832.00	130.00
1833.00	130.67
1834.00	138.67
1835.00	174.33
1836.00	235.00
1837.00	293.33
1838.00	308.33
1839.00	277.67
1840.00	235.00
1841.00	203.00
1842.00	185.67
1843.00	176.33
1844.00	168.67
1845.00	163.67
1846.00	156.67
1847.00	152.33
1848.00	149.67
1849.00	149.00
1850.00	147.33
1851.00	147.00
1852.00	144.67
1853.00	141.67
1854.00	137.33
1855.00	135.67
1856.00	135.67
1857.00	134.33
1858.00	132.00
1859.00	130.00
1860.00	130.33
1861.00	131.33
1862.00	134.33
1863.00	137.33
1864.00	138.00
1865.00	136.33
1866.00	133.67
1867.00	133.33
1868.00	133.00
1869.00	133.33
1870.00	134.00
1871.00	135.00
1872.00	135.33
1873.00	134.00
1874.00	132.33
1875.00	131.00
1876.00	130.33
1877.00	130.33
1878.00	131.67
1879.00	136.67
1880.00	146.00
1881.00	153.67
1882.00	155.33
1883.00	150.33
1884.00	144.33
1885.00	140.67
1886.00	139.00
1887.00	138.00
1888.00	137.67
1889.00	136.67
1890.00	136.67
1891.00	135.00
1892.00	134.00
1893.00	132.00
1894.00	132.33
1895.00	132.67
1896.00	133.00
1897.00	133.33
1898.00	133.00
1899.00	134.00
1900.00	133.33
1901.00	133.00
1902.00	132.33
1903.00	132.33
1904.00	132.00
1905.00	131.33
1906.00	130.67
1907.00	130.67
1908.00	130.00
1909.00	130.33
1910.00	131.33
1911.00	132.67
1912.00	132.33
1913.00	131.67
1914.00	130.67
1915.00	131.00
1916.00	130.00
1917.00	129.67
1918.00	129.00
1919.00	129.33
1920.00	129.67
1921.00	130.33
1922.00	131.00
1923.00	131.67
1924.00	132.00
1925.00	131.33
1926.00	131.00
1927.00	131.00
1928.00	131.33
1929.00	132.00
1930.00	133.00
1931.00	134.33
1932.00	134.33
1933.00	132.67
1934.00	131.67
1935.00	131.67
1936.00	131.67
1937.00	131.00
1938.00	129.33
1939.00	128.33
1940.00	127.67
1941.00	128.00
1942.00	129.33
1943.00	129.67
1944.00	129.33
1945.00	129.33
1946.00	130.00
1947.00	130.33
1948.00	129.00
1949.00	128.67
1950.00	129.00
1951.00	129.67
1952.00	129.33
1953.00	130.00
1954.00	131.33
1955.00	133.00
1956.00	134.00
1957.00	134.00
1958.00	133.00
1959.00	131.67
1960.00	131.67
1961.00	132.00
1962.00	131.33
1963.00	130.33
1964.00	129.33
1965.00	131.00
1966.00	133.33
1967.00	134.00
1968.00	132.00
1969.00	129.67
1970.00	129.67
1971.00	131.00
1972.00	132.00
1973.00	132.33
1974.00	132.33
1975.00	133.33
1976.00	133.67
1977.00	133.67
1978.00	131.67
1979.00	130.33
1980.00	129.33
1981.00	130.00
1982.00	131.00
1983.00	131.00
1984.00	130.00
1985.00	130.33
1986.00	132.33
1987.00	133.33
1988.00	133.00
1989.00	132.00
1990.00	131.67
1991.00	131.33
1992.00	132.00
1993.00	132.67
1994.00	134.33
1995.00	134.33
1996.00	134.00
1997.00	132.33
1998.00	131.33
1999.00	130.67
2000.00	129.33
2001.00	128.67
2002.00	129.33
2003.00	132.00
2004.00	134.00
2005.00	135.67
2006.00	136.67
2007.00	137.67
2008.00	137.00
2009.00	135.67
2010.00	134.67
2011.00	134.67
2012.00	134.33
2013.00	134.00
2014.00	134.00
2015.00	134.00
2016.00	134.33
2017.00	133.67
2018.00	133.67
2019.00	133.33
2020.00	133.00
2021.00	132.67
2022.00	132.67
2023.00	133.00
2024.00	132.00
2025.00	130.67
2026.00	131.33
2027.00	133.67
2028.00	134.33
2029.00	132.33
2030.00	130.00
2031.00	128.33
2032.00	127.33
2033.00	127.67
2034.00	129.00
2035.00	131.00
2036.00	131.67
2037.00	131.67
2038.00	130.67
2039.00	130.33
2040.00	130.00
2041.00	131.33
2042.00	132.33
2043.00	132.33
2044.00	131.00
2045.00	129.33
2046.00	130.00
2047.00	132.00
>>>>>End Processed Spectral Data<<<<<
